stim_file,condition,subtlety,slider,RT,accuracy,subID,trial_ind
7d329546-ecf4-4612-8f00-c127c77d5d6c,chase,60,100.0,2.264,1,265,0
68be0cf8-ea92-4566-b84a-cbd60b2e5547,wander,180,19.0,3.469,1,265,1
884bc951-67a6-42bd-8ea7-ece0c8745d3f,chase,0,100.0,2.826,1,265,2
24724e9a-8a79-4ab8-a58f-e007c5d00714,chase,120,95.0,3.256,1,265,3
cd9d4d31-b57e-4c3d-86c6-267ce9eec948,chase,60,100.0,2.497,1,265,4
12ba80f8-98cb-4c76-836d-72c2d6364a8e,chase,120,14.0,2.873,1,265,5
c5cf3c4d-84e7-4c90-a33b-9d7db4b01300,chase,0,87.0,3.684,1,265,6
977e0607-6332-4db4-ab12-9d17dce4dc85,wander,180,10.0,2.93,1,265,7
e4dd3e31-b4f2-4f66-9e70-0665b6bcd089,chase,30,91.0,2.756,1,265,8
18c4991b-f4d6-47a6-b29a-81f425410c0e,chase,120,23.0,2.4,1,265,9
5dbc75c6-6973-4ae1-aaf0-d3b84feb4723,wander,180,9.0,3.136,1,265,10
b70d0259-cb69-48f1-b026-46452cf6e70f,wander,180,36.0,2.539,1,265,11
4fb58057-109b-400f-8b1d-d9afc6926a6c,chase,60,71.0,3.43,1,265,12
86edbcec-0b0a-41d9-9c9e-d5df43732237,chase,30,80.0,2.962,1,265,13
411043c2-72c5-48c5-8cb7-febcebc40f98,chase,30,94.0,2.66,1,265,14
64e6dcf6-35e5-46ef-8d1c-80a6786a24f6,chase,90,73.0,2.408,1,265,15
93865245-a3be-41b2-a17e-29b2b6043800,chase,90,68.0,2.734,1,265,16
2667cf6b-8ba8-4919-a871-ecd9b2852bce,chase,120,23.0,2.744,1,265,17
8af66fd7-6ab4-47a3-a88c-02fd34772ac6,wander,180,0.0,2.473,1,265,18
a763322d-d8ef-4998-b3d2-05767e0273f2,chase,150,19.0,3.866,1,265,19
cf6ad30a-98ab-45d8-98d9-92352096afee,chase,30,91.0,3.493,1,265,20
5ce017a9-f595-403c-a861-53e49993751a,wander,180,28.0,3.034,1,265,21
1d35e834-4947-46b2-9cbd-816ea4587c6f,wander,180,26.0,3.178,1,265,22
c51864d5-4cd9-435e-8d8b-210c8454248a,chase,0,100.0,2.508,1,265,23
738dba2c-d7cb-488e-b971-0dc50c74bf4b,chase,30,100.0,2.43,1,265,24
9d561139-a905-406b-83a0-38ea62293ed9,chase,90,67.0,2.339,1,265,25
42d1593c-1903-4c06-8304-6d2b29c5be37,chase,30,92.0,2.861,1,265,26
45126725-a7eb-4318-86c4-1af84082e8b8,chase,30,84.0,3.059,1,265,27
981221b7-2aa0-476c-b101-390d6cc3dd1a,chase,120,69.0,2.669,1,265,28
1c695094-312c-450a-ac7f-f994dabb958d,wander,180,28.0,2.714,1,265,29
ae7d3eb8-dc5d-447b-b5c5-9b30fb3b8314,chase,60,76.0,3.277,1,265,30
81f068e9-cbbc-4d88-8e31-206979547986,chase,120,78.0,3.386,1,265,31
58ff2cb6-e661-4be4-945c-d3f9ab5180c6,chase,150,71.0,2.95,1,265,32
3dbf8de7-1bf7-4a43-a5e3-4366a94ea690,chase,90,73.0,2.863,1,265,33
67a027b6-67e1-4784-aaad-ab48b5731cca,chase,0,82.0,2.84,1,265,34
6d712780-43b4-49f9-9bb8-c6ef920b78bd,chase,0,82.0,3.347,1,265,35
f9e978d5-51e5-401a-8c9a-df747f2dec53,chase,0,78.0,3.362,1,265,36
c4c5c990-2898-4b30-8454-9be48985cf75,chase,150,29.0,2.479,1,265,37
6164475a-8bff-4ee0-8fef-043a34cd7da5,chase,120,81.0,2.888,1,265,38
184c8795-2f00-4c7d-bc10-bd7de3066a20,chase,60,85.0,2.874,1,265,39
1a3da098-0a3a-43af-af4a-a9fad5adcce6,chase,90,84.0,2.042,1,265,40
599df54c-434d-46db-a56a-5698a4ae9a9e,chase,150,31.0,2.377,0,265,41
b3b1ce6f-50f4-4922-80d2-b53f06819db2,chase,120,79.0,2.529,1,265,42
7f76ce9f-1463-4e78-87a4-6a54cd80ee88,chase,90,76.0,2.519,1,265,43
7ef8daac-db75-4ee8-a071-f88ace7368fa,chase,60,93.0,2.882,1,265,44
068dfd59-6b9c-4eca-b60c-7eb73cc72305,chase,0,97.0,2.06,1,265,45
46975d67-ead1-4d29-93d2-9fbd40dad49d,wander,180,15.0,2.572,0,265,46
e5de8a7b-b080-44aa-9279-c42f7862e210,chase,0,85.0,3.158,1,265,47
0ea38b84-b2dc-4072-b4b8-3dce5f53debc,chase,120,64.0,2.22,1,265,48
a680f7c6-9605-4481-a14d-c24d8d7b99bc,chase,30,74.0,2.677,1,265,49
2cf66fb7-ab1d-466b-be40-d9f856dc213f,wander,180,6.0,3.145,1,265,50
2d4bdbd9-d1de-4787-8cc8-a317b9d4c68d,wander,180,22.0,1.757,1,265,51
cd35aaa0-2e49-4c68-9db3-f26fb9be29c5,chase,0,99.0,1.713,1,265,52
7da2bf99-2525-456c-889d-33e4d57cefac,chase,150,21.0,2.298,1,265,53
c8a1258a-1920-42bf-98e8-6c2dcc03a258,chase,60,80.0,3.129,1,265,54
dbce0a8f-ba45-4265-a60e-b98acd0e16d0,chase,150,37.0,2.552,1,265,55
b75e278a-0fbd-474b-92b0-7038934dda4b,chase,30,97.0,2.138,1,265,56
2383c97c-89dc-495f-8ec8-8a517a45ca6c,chase,90,78.0,2.664,1,265,57
c1b6f573-136b-414a-a6ec-8628f66a51e1,chase,150,24.0,2.819,1,265,58
f1ea4cb7-98d0-45a4-8269-16f1aebf05e3,chase,30,79.0,2.088,1,265,59
0ea90462-f5e2-47a7-bd4b-2ea1c0bb7293,chase,60,71.0,6.553,0,265,60
f8c01499-8009-448b-9476-a38a582d3db6,chase,150,38.0,2.877,1,265,61
bc18f2bb-8e1a-4fcf-bc63-d56da485f828,chase,90,66.0,2.412,1,265,62
496c052f-24cd-4731-b1a3-dc6a8076719b,chase,120,59.0,1.857,1,265,63
f4c4b671-d1de-4b8d-adad-ab6e05900d81,chase,90,57.0,1.958,1,265,64
92158ea9-b156-4e87-a2e3-ff0845033b9c,chase,150,44.0,2.706,1,265,65
398e7f33-6d63-47e3-9a9a-74e474cd8a1d,chase,30,88.0,1.998,1,265,66
c798455f-e351-48ee-b7cd-d27d6bb7ad61,chase,60,93.0,2.904,1,265,67
4f1db8f7-63a7-4e49-b31b-12adcf107bf0,chase,150,31.0,2.166,1,265,68
bee25e5c-74fd-4f63-b2e7-43b8af6bb08c,chase,90,69.0,2.335,1,265,69
4e913eda-699f-4aa1-831d-c82fb169914c,chase,60,64.0,2.287,1,265,70
d145a05f-e3c9-4244-b83b-2792e29b0493,chase,150,52.0,2.572,1,265,71
64673dfa-0706-4fb2-a297-b988740292d5,chase,90,71.0,5.992,1,265,72
21ca5095-0a92-499b-9d26-d8a5f4a0841a,wander,180,44.0,3.424,1,265,73
dad72227-6303-403d-8c8f-61b79d192ff4,chase,120,35.0,3.035,1,265,74
ebb2b54b-03ef-482e-98e6-c30b11e93f54,chase,90,73.0,2.345,1,265,75
c40a4196-baf2-4992-afe5-aeca6b69a170,chase,30,85.0,2.177,1,265,76
84e883bc-3ec7-4bef-bdb3-2016001d7f47,chase,120,42.0,2.777,1,265,77
2b3090fe-a6e0-4e32-8e43-767b0d526444,chase,60,94.0,2.444,1,265,78
4fb304a5-e4d9-4469-a34d-360a50cb0d09,chase,60,74.0,1.994,1,265,79
2437aa32-b54d-48e7-b20d-fafb63156eb0,chase,0,73.0,1.965,1,265,80
65c87d60-ca32-4b8c-862c-41cd8e585b4b,chase,0,70.0,2.305,1,265,81
116d4cf9-2d22-4e06-8fbf-248789f8212c,chase,150,36.0,2.447,0,265,82
4b3782e4-fafc-4dd1-96aa-9b339f19d004,chase,0,78.0,1.574,1,265,83
7f76ce9f-1463-4e78-87a4-6a54cd80ee88,chase,90,100.0,2.793,1,325,0
1d35e834-4947-46b2-9cbd-816ea4587c6f,wander,180,0.0,2.904,1,325,1
18c4991b-f4d6-47a6-b29a-81f425410c0e,chase,120,2.0,2.446,1,325,2
bc18f2bb-8e1a-4fcf-bc63-d56da485f828,chase,90,33.0,2.95,1,325,3
e4dd3e31-b4f2-4f66-9e70-0665b6bcd089,chase,30,100.0,2.386,1,325,4
46975d67-ead1-4d29-93d2-9fbd40dad49d,wander,180,58.0,2.978,0,325,5
4e913eda-699f-4aa1-831d-c82fb169914c,chase,60,81.0,1.846,1,325,6
ebb2b54b-03ef-482e-98e6-c30b11e93f54,chase,90,73.0,2.082,1,325,7
c8a1258a-1920-42bf-98e8-6c2dcc03a258,chase,60,88.0,2.366,1,325,8
f8c01499-8009-448b-9476-a38a582d3db6,chase,150,60.0,2.553,1,325,9
f9e978d5-51e5-401a-8c9a-df747f2dec53,chase,0,87.0,2.336,1,325,10
496c052f-24cd-4731-b1a3-dc6a8076719b,chase,120,73.0,2.776,1,325,11
3dbf8de7-1bf7-4a43-a5e3-4366a94ea690,chase,90,34.0,2.95,1,325,12
411043c2-72c5-48c5-8cb7-febcebc40f98,chase,30,93.0,2.916,1,325,13
bee25e5c-74fd-4f63-b2e7-43b8af6bb08c,chase,90,93.0,3.028,1,325,14
7ef8daac-db75-4ee8-a071-f88ace7368fa,chase,60,95.0,1.816,1,325,15
2b3090fe-a6e0-4e32-8e43-767b0d526444,chase,60,100.0,2.398,1,325,16
d145a05f-e3c9-4244-b83b-2792e29b0493,chase,150,96.0,1.968,1,325,17
599df54c-434d-46db-a56a-5698a4ae9a9e,chase,150,7.0,2.149,0,325,18
12ba80f8-98cb-4c76-836d-72c2d6364a8e,chase,120,2.0,2.634,1,325,19
92158ea9-b156-4e87-a2e3-ff0845033b9c,chase,150,2.0,2.311,1,325,20
2d4bdbd9-d1de-4787-8cc8-a317b9d4c68d,wander,180,0.0,2.623,0,325,21
cd35aaa0-2e49-4c68-9db3-f26fb9be29c5,chase,0,100.0,2.15,1,325,22
0ea90462-f5e2-47a7-bd4b-2ea1c0bb7293,chase,60,100.0,2.705,1,325,23
67a027b6-67e1-4784-aaad-ab48b5731cca,chase,0,100.0,3.105,1,325,24
9d561139-a905-406b-83a0-38ea62293ed9,chase,90,100.0,1.989,1,325,25
84e883bc-3ec7-4bef-bdb3-2016001d7f47,chase,120,21.0,2.637,1,325,26
6164475a-8bff-4ee0-8fef-043a34cd7da5,chase,120,57.0,2.77,1,325,27
c4c5c990-2898-4b30-8454-9be48985cf75,chase,150,0.0,2.37,1,325,28
b3b1ce6f-50f4-4922-80d2-b53f06819db2,chase,120,100.0,2.031,1,325,29
7d329546-ecf4-4612-8f00-c127c77d5d6c,chase,60,100.0,2.196,1,325,30
dbce0a8f-ba45-4265-a60e-b98acd0e16d0,chase,150,100.0,2.262,1,325,31
21ca5095-0a92-499b-9d26-d8a5f4a0841a,wander,180,0.0,2.26,0,325,32
977e0607-6332-4db4-ab12-9d17dce4dc85,wander,180,0.0,2.547,1,325,33
f1ea4cb7-98d0-45a4-8269-16f1aebf05e3,chase,30,100.0,2.044,1,325,34
2cf66fb7-ab1d-466b-be40-d9f856dc213f,wander,180,20.0,2.424,1,325,35
68be0cf8-ea92-4566-b84a-cbd60b2e5547,wander,180,63.0,2.289,0,325,36
c40a4196-baf2-4992-afe5-aeca6b69a170,chase,30,100.0,2.1,1,325,37
8af66fd7-6ab4-47a3-a88c-02fd34772ac6,wander,180,0.0,2.555,1,325,38
4fb58057-109b-400f-8b1d-d9afc6926a6c,chase,60,100.0,1.838,1,325,39
c51864d5-4cd9-435e-8d8b-210c8454248a,chase,0,100.0,2.148,1,325,40
184c8795-2f00-4c7d-bc10-bd7de3066a20,chase,60,100.0,2.178,1,325,41
93865245-a3be-41b2-a17e-29b2b6043800,chase,90,74.0,2.801,1,325,42
2437aa32-b54d-48e7-b20d-fafb63156eb0,chase,0,100.0,2.042,1,325,43
ae7d3eb8-dc5d-447b-b5c5-9b30fb3b8314,chase,60,99.0,2.127,1,325,44
86edbcec-0b0a-41d9-9c9e-d5df43732237,chase,30,100.0,2.136,1,325,45
45126725-a7eb-4318-86c4-1af84082e8b8,chase,30,98.0,2.017,1,325,46
c1b6f573-136b-414a-a6ec-8628f66a51e1,chase,150,0.0,2.848,1,325,47
cf6ad30a-98ab-45d8-98d9-92352096afee,chase,30,100.0,1.989,1,325,48
4b3782e4-fafc-4dd1-96aa-9b339f19d004,chase,0,100.0,2.025,1,325,49
a680f7c6-9605-4481-a14d-c24d8d7b99bc,chase,30,100.0,2.92,1,325,50
a763322d-d8ef-4998-b3d2-05767e0273f2,chase,150,0.0,2.523,1,325,51
6d712780-43b4-49f9-9bb8-c6ef920b78bd,chase,0,100.0,2.122,1,325,52
dad72227-6303-403d-8c8f-61b79d192ff4,chase,120,0.0,2.56,1,325,53
0ea38b84-b2dc-4072-b4b8-3dce5f53debc,chase,120,36.0,1.987,1,325,54
64e6dcf6-35e5-46ef-8d1c-80a6786a24f6,chase,90,97.0,1.974,1,325,55
2383c97c-89dc-495f-8ec8-8a517a45ca6c,chase,90,61.0,2.072,1,325,56
e5de8a7b-b080-44aa-9279-c42f7862e210,chase,0,100.0,2.01,1,325,57
c798455f-e351-48ee-b7cd-d27d6bb7ad61,chase,60,100.0,2.213,1,325,58
981221b7-2aa0-476c-b101-390d6cc3dd1a,chase,120,100.0,2.576,1,325,59
1c695094-312c-450a-ac7f-f994dabb958d,wander,180,0.0,2.243,1,325,60
884bc951-67a6-42bd-8ea7-ece0c8745d3f,chase,0,100.0,2.201,1,325,61
7da2bf99-2525-456c-889d-33e4d57cefac,chase,150,0.0,2.637,1,325,62
116d4cf9-2d22-4e06-8fbf-248789f8212c,chase,150,0.0,2.943,1,325,63
2667cf6b-8ba8-4919-a871-ecd9b2852bce,chase,120,5.0,2.948,1,325,64
81f068e9-cbbc-4d88-8e31-206979547986,chase,120,95.0,2.481,1,325,65
5dbc75c6-6973-4ae1-aaf0-d3b84feb4723,wander,180,0.0,2.616,1,325,66
4fb304a5-e4d9-4469-a34d-360a50cb0d09,chase,60,100.0,1.831,1,325,67
398e7f33-6d63-47e3-9a9a-74e474cd8a1d,chase,30,100.0,2.188,1,325,68
c5cf3c4d-84e7-4c90-a33b-9d7db4b01300,chase,0,100.0,1.993,1,325,69
cd9d4d31-b57e-4c3d-86c6-267ce9eec948,chase,60,100.0,1.696,1,325,70
738dba2c-d7cb-488e-b971-0dc50c74bf4b,chase,30,100.0,1.869,1,325,71
068dfd59-6b9c-4eca-b60c-7eb73cc72305,chase,0,100.0,1.87,1,325,72
65c87d60-ca32-4b8c-862c-41cd8e585b4b,chase,0,100.0,2.153,1,325,73
42d1593c-1903-4c06-8304-6d2b29c5be37,chase,30,100.0,1.939,1,325,74
64673dfa-0706-4fb2-a297-b988740292d5,chase,90,100.0,2.231,1,325,75
1a3da098-0a3a-43af-af4a-a9fad5adcce6,chase,90,100.0,2.257,1,325,76
58ff2cb6-e661-4be4-945c-d3f9ab5180c6,chase,150,100.0,2.366,1,325,77
b75e278a-0fbd-474b-92b0-7038934dda4b,chase,30,100.0,1.992,1,325,78
24724e9a-8a79-4ab8-a58f-e007c5d00714,chase,120,97.0,2.218,1,325,79
b70d0259-cb69-48f1-b026-46452cf6e70f,wander,180,26.0,2.424,0,325,80
4f1db8f7-63a7-4e49-b31b-12adcf107bf0,chase,150,19.0,2.185,1,325,81
f4c4b671-d1de-4b8d-adad-ab6e05900d81,chase,90,69.0,2.306,1,325,82
5ce017a9-f595-403c-a861-53e49993751a,wander,180,41.0,2.648,1,325,83
d145a05f-e3c9-4244-b83b-2792e29b0493,chase,150,0.0,2.492,1,309,0
a763322d-d8ef-4998-b3d2-05767e0273f2,chase,150,0.0,2.052,0,309,1
2cf66fb7-ab1d-466b-be40-d9f856dc213f,wander,180,100.0,2.97,1,309,2
0ea38b84-b2dc-4072-b4b8-3dce5f53debc,chase,120,100.0,3.414,1,309,3
1a3da098-0a3a-43af-af4a-a9fad5adcce6,chase,90,100.0,2.608,1,309,4
bee25e5c-74fd-4f63-b2e7-43b8af6bb08c,chase,90,100.0,2.723,1,309,5
b3b1ce6f-50f4-4922-80d2-b53f06819db2,chase,120,100.0,2.694,1,309,6
c4c5c990-2898-4b30-8454-9be48985cf75,chase,150,0.0,2.354,0,309,7
65c87d60-ca32-4b8c-862c-41cd8e585b4b,chase,0,100.0,2.631,1,309,8
84e883bc-3ec7-4bef-bdb3-2016001d7f47,chase,120,0.0,2.44,1,309,9
92158ea9-b156-4e87-a2e3-ff0845033b9c,chase,150,0.0,2.558,0,309,10
c798455f-e351-48ee-b7cd-d27d6bb7ad61,chase,60,100.0,3.679,1,309,11
7d329546-ecf4-4612-8f00-c127c77d5d6c,chase,60,100.0,2.703,1,309,12
8af66fd7-6ab4-47a3-a88c-02fd34772ac6,wander,180,0.0,3.75,0,309,13
1d35e834-4947-46b2-9cbd-816ea4587c6f,wander,180,0.0,3.356,0,309,14
b75e278a-0fbd-474b-92b0-7038934dda4b,chase,30,100.0,2.689,1,309,15
81f068e9-cbbc-4d88-8e31-206979547986,chase,120,100.0,2.352,1,309,16
c51864d5-4cd9-435e-8d8b-210c8454248a,chase,0,100.0,2.603,1,309,17
42d1593c-1903-4c06-8304-6d2b29c5be37,chase,30,100.0,2.368,1,309,18
cd9d4d31-b57e-4c3d-86c6-267ce9eec948,chase,60,100.0,2.338,1,309,19
4f1db8f7-63a7-4e49-b31b-12adcf107bf0,chase,150,0.0,3.384,0,309,20
4fb304a5-e4d9-4469-a34d-360a50cb0d09,chase,60,100.0,2.719,1,309,21
068dfd59-6b9c-4eca-b60c-7eb73cc72305,chase,0,100.0,2.599,1,309,22
e5de8a7b-b080-44aa-9279-c42f7862e210,chase,0,100.0,2.449,1,309,23
5dbc75c6-6973-4ae1-aaf0-d3b84feb4723,wander,180,0.0,2.542,1,309,24
2437aa32-b54d-48e7-b20d-fafb63156eb0,chase,0,100.0,3.477,1,309,25
398e7f33-6d63-47e3-9a9a-74e474cd8a1d,chase,30,100.0,3.682,1,309,26
4e913eda-699f-4aa1-831d-c82fb169914c,chase,60,100.0,2.557,1,309,27
c40a4196-baf2-4992-afe5-aeca6b69a170,chase,30,100.0,2.356,1,309,28
18c4991b-f4d6-47a6-b29a-81f425410c0e,chase,120,0.0,2.712,1,309,29
b70d0259-cb69-48f1-b026-46452cf6e70f,wander,180,0.0,2.424,0,309,30
738dba2c-d7cb-488e-b971-0dc50c74bf4b,chase,30,100.0,2.566,1,309,31
6d712780-43b4-49f9-9bb8-c6ef920b78bd,chase,0,100.0,2.101,1,309,32
5ce017a9-f595-403c-a861-53e49993751a,wander,180,0.0,2.754,1,309,33
2d4bdbd9-d1de-4787-8cc8-a317b9d4c68d,wander,180,0.0,7.121,1,309,34
184c8795-2f00-4c7d-bc10-bd7de3066a20,chase,60,100.0,3.195,1,309,35
7ef8daac-db75-4ee8-a071-f88ace7368fa,chase,60,100.0,3.067,1,309,36
46975d67-ead1-4d29-93d2-9fbd40dad49d,wander,180,0.0,2.558,0,309,37
bc18f2bb-8e1a-4fcf-bc63-d56da485f828,chase,90,100.0,2.837,1,309,38
7da2bf99-2525-456c-889d-33e4d57cefac,chase,150,0.0,2.505,1,309,39
e4dd3e31-b4f2-4f66-9e70-0665b6bcd089,chase,30,100.0,3.462,1,309,40
f9e978d5-51e5-401a-8c9a-df747f2dec53,chase,0,100.0,2.252,1,309,41
7f76ce9f-1463-4e78-87a4-6a54cd80ee88,chase,90,0.0,2.28,1,309,42
21ca5095-0a92-499b-9d26-d8a5f4a0841a,wander,180,0.0,2.283,0,309,43
93865245-a3be-41b2-a17e-29b2b6043800,chase,90,0.0,2.931,1,309,44
dbce0a8f-ba45-4265-a60e-b98acd0e16d0,chase,150,0.0,2.287,1,309,45
6164475a-8bff-4ee0-8fef-043a34cd7da5,chase,120,0.0,2.516,1,309,46
24724e9a-8a79-4ab8-a58f-e007c5d00714,chase,120,100.0,2.457,1,309,47
116d4cf9-2d22-4e06-8fbf-248789f8212c,chase,150,0.0,2.712,0,309,48
cd35aaa0-2e49-4c68-9db3-f26fb9be29c5,chase,0,100.0,2.353,1,309,49
3dbf8de7-1bf7-4a43-a5e3-4366a94ea690,chase,90,100.0,2.189,1,309,50
c1b6f573-136b-414a-a6ec-8628f66a51e1,chase,150,0.0,2.517,1,309,51
0ea90462-f5e2-47a7-bd4b-2ea1c0bb7293,chase,60,100.0,2.518,1,309,52
9d561139-a905-406b-83a0-38ea62293ed9,chase,90,100.0,3.713,1,309,53
2b3090fe-a6e0-4e32-8e43-767b0d526444,chase,60,100.0,2.905,1,309,54
dad72227-6303-403d-8c8f-61b79d192ff4,chase,120,0.0,2.858,0,309,55
1c695094-312c-450a-ac7f-f994dabb958d,wander,180,0.0,2.201,1,309,56
12ba80f8-98cb-4c76-836d-72c2d6364a8e,chase,120,0.0,2.946,1,309,57
c5cf3c4d-84e7-4c90-a33b-9d7db4b01300,chase,0,100.0,3.445,1,309,58
58ff2cb6-e661-4be4-945c-d3f9ab5180c6,chase,150,0.0,2.981,1,309,59
4b3782e4-fafc-4dd1-96aa-9b339f19d004,chase,0,100.0,2.136,1,309,60
68be0cf8-ea92-4566-b84a-cbd60b2e5547,wander,180,0.0,2.402,0,309,61
496c052f-24cd-4731-b1a3-dc6a8076719b,chase,120,0.0,2.787,0,309,62
2383c97c-89dc-495f-8ec8-8a517a45ca6c,chase,90,0.0,4.733,1,309,63
884bc951-67a6-42bd-8ea7-ece0c8745d3f,chase,0,100.0,2.661,1,309,64
86edbcec-0b0a-41d9-9c9e-d5df43732237,chase,30,100.0,1.982,1,309,65
a680f7c6-9605-4481-a14d-c24d8d7b99bc,chase,30,100.0,1.853,1,309,66
411043c2-72c5-48c5-8cb7-febcebc40f98,chase,30,100.0,2.386,1,309,67
f4c4b671-d1de-4b8d-adad-ab6e05900d81,chase,90,0.0,2.725,1,309,68
599df54c-434d-46db-a56a-5698a4ae9a9e,chase,150,0.0,2.784,0,309,69
c8a1258a-1920-42bf-98e8-6c2dcc03a258,chase,60,100.0,2.973,1,309,70
64673dfa-0706-4fb2-a297-b988740292d5,chase,90,0.0,2.479,1,309,71
ae7d3eb8-dc5d-447b-b5c5-9b30fb3b8314,chase,60,100.0,3.628,1,309,72
45126725-a7eb-4318-86c4-1af84082e8b8,chase,30,100.0,3.274,1,309,73
64e6dcf6-35e5-46ef-8d1c-80a6786a24f6,chase,90,100.0,2.286,1,309,74
ebb2b54b-03ef-482e-98e6-c30b11e93f54,chase,90,100.0,2.651,1,309,75
2667cf6b-8ba8-4919-a871-ecd9b2852bce,chase,120,0.0,2.708,1,309,76
981221b7-2aa0-476c-b101-390d6cc3dd1a,chase,120,0.0,3.092,1,309,77
f8c01499-8009-448b-9476-a38a582d3db6,chase,150,0.0,2.634,1,309,78
977e0607-6332-4db4-ab12-9d17dce4dc85,wander,180,0.0,2.189,1,309,79
4fb58057-109b-400f-8b1d-d9afc6926a6c,chase,60,100.0,2.242,1,309,80
67a027b6-67e1-4784-aaad-ab48b5731cca,chase,0,100.0,2.159,1,309,81
f1ea4cb7-98d0-45a4-8269-16f1aebf05e3,chase,30,100.0,2.722,1,309,82
cf6ad30a-98ab-45d8-98d9-92352096afee,chase,30,100.0,2.733,1,309,83
e5de8a7b-b080-44aa-9279-c42f7862e210,chase,0,100.0,2.939,1,301,0
7d329546-ecf4-4612-8f00-c127c77d5d6c,chase,60,100.0,3.645,1,301,1
116d4cf9-2d22-4e06-8fbf-248789f8212c,chase,150,0.0,3.41,1,301,2
b75e278a-0fbd-474b-92b0-7038934dda4b,chase,30,100.0,3.199,1,301,3
7ef8daac-db75-4ee8-a071-f88ace7368fa,chase,60,100.0,3.074,1,301,4
a763322d-d8ef-4998-b3d2-05767e0273f2,chase,150,0.0,3.259,1,301,5
0ea90462-f5e2-47a7-bd4b-2ea1c0bb7293,chase,60,100.0,2.863,1,301,6
7da2bf99-2525-456c-889d-33e4d57cefac,chase,150,38.0,3.63,1,301,7
bee25e5c-74fd-4f63-b2e7-43b8af6bb08c,chase,90,100.0,3.061,1,301,8
68be0cf8-ea92-4566-b84a-cbd60b2e5547,wander,180,80.0,3.117,1,301,9
2437aa32-b54d-48e7-b20d-fafb63156eb0,chase,0,100.0,2.775,1,301,10
f1ea4cb7-98d0-45a4-8269-16f1aebf05e3,chase,30,100.0,4.107,1,301,11
1a3da098-0a3a-43af-af4a-a9fad5adcce6,chase,90,95.0,3.048,1,301,12
cf6ad30a-98ab-45d8-98d9-92352096afee,chase,30,100.0,2.85,1,301,13
4f1db8f7-63a7-4e49-b31b-12adcf107bf0,chase,150,0.0,4.434,1,301,14
5dbc75c6-6973-4ae1-aaf0-d3b84feb4723,wander,180,0.0,3.695,1,301,15
64e6dcf6-35e5-46ef-8d1c-80a6786a24f6,chase,90,100.0,3.048,1,301,16
981221b7-2aa0-476c-b101-390d6cc3dd1a,chase,120,30.0,3.521,1,301,17
67a027b6-67e1-4784-aaad-ab48b5731cca,chase,0,100.0,3.488,1,301,18
c40a4196-baf2-4992-afe5-aeca6b69a170,chase,30,100.0,3.184,1,301,19
884bc951-67a6-42bd-8ea7-ece0c8745d3f,chase,0,100.0,2.775,1,301,20
46975d67-ead1-4d29-93d2-9fbd40dad49d,wander,180,5.0,4.817,0,301,21
65c87d60-ca32-4b8c-862c-41cd8e585b4b,chase,0,100.0,2.931,1,301,22
c1b6f573-136b-414a-a6ec-8628f66a51e1,chase,150,0.0,3.985,1,301,23
398e7f33-6d63-47e3-9a9a-74e474cd8a1d,chase,30,100.0,2.819,1,301,24
8af66fd7-6ab4-47a3-a88c-02fd34772ac6,wander,180,28.0,3.118,1,301,25
7f76ce9f-1463-4e78-87a4-6a54cd80ee88,chase,90,85.0,3.006,1,301,26
ae7d3eb8-dc5d-447b-b5c5-9b30fb3b8314,chase,60,100.0,2.644,1,301,27
cd9d4d31-b57e-4c3d-86c6-267ce9eec948,chase,60,100.0,2.803,1,301,28
64673dfa-0706-4fb2-a297-b988740292d5,chase,90,87.0,3.017,1,301,29
9d561139-a905-406b-83a0-38ea62293ed9,chase,90,68.0,2.729,1,301,30
b3b1ce6f-50f4-4922-80d2-b53f06819db2,chase,120,96.0,3.091,1,301,31
738dba2c-d7cb-488e-b971-0dc50c74bf4b,chase,30,100.0,2.756,1,301,32
2b3090fe-a6e0-4e32-8e43-767b0d526444,chase,60,100.0,2.813,1,301,33
184c8795-2f00-4c7d-bc10-bd7de3066a20,chase,60,87.0,3.554,1,301,34
0ea38b84-b2dc-4072-b4b8-3dce5f53debc,chase,120,18.0,3.473,1,301,35
496c052f-24cd-4731-b1a3-dc6a8076719b,chase,120,59.0,3.036,1,301,36
18c4991b-f4d6-47a6-b29a-81f425410c0e,chase,120,4.0,3.849,1,301,37
58ff2cb6-e661-4be4-945c-d3f9ab5180c6,chase,150,68.0,2.727,1,301,38
b70d0259-cb69-48f1-b026-46452cf6e70f,wander,180,4.0,3.316,0,301,39
1c695094-312c-450a-ac7f-f994dabb958d,wander,180,0.0,2.578,0,301,40
4e913eda-699f-4aa1-831d-c82fb169914c,chase,60,91.0,2.955,1,301,41
12ba80f8-98cb-4c76-836d-72c2d6364a8e,chase,120,22.0,2.953,1,301,42
2d4bdbd9-d1de-4787-8cc8-a317b9d4c68d,wander,180,0.0,3.854,1,301,43
86edbcec-0b0a-41d9-9c9e-d5df43732237,chase,30,100.0,2.933,1,301,44
4fb304a5-e4d9-4469-a34d-360a50cb0d09,chase,60,96.0,3.954,1,301,45
977e0607-6332-4db4-ab12-9d17dce4dc85,wander,180,3.0,4.802,1,301,46
6164475a-8bff-4ee0-8fef-043a34cd7da5,chase,120,26.0,3.261,1,301,47
411043c2-72c5-48c5-8cb7-febcebc40f98,chase,30,100.0,3.204,1,301,48
2cf66fb7-ab1d-466b-be40-d9f856dc213f,wander,180,14.0,3.606,1,301,49
5ce017a9-f595-403c-a861-53e49993751a,wander,180,24.0,2.901,1,301,50
c4c5c990-2898-4b30-8454-9be48985cf75,chase,150,65.0,3.108,1,301,51
6d712780-43b4-49f9-9bb8-c6ef920b78bd,chase,0,100.0,2.76,1,301,52
f9e978d5-51e5-401a-8c9a-df747f2dec53,chase,0,100.0,2.791,1,301,53
93865245-a3be-41b2-a17e-29b2b6043800,chase,90,76.0,2.855,1,301,54
3dbf8de7-1bf7-4a43-a5e3-4366a94ea690,chase,90,73.0,2.694,1,301,55
21ca5095-0a92-499b-9d26-d8a5f4a0841a,wander,180,0.0,3.713,0,301,56
4fb58057-109b-400f-8b1d-d9afc6926a6c,chase,60,100.0,2.896,1,301,57
24724e9a-8a79-4ab8-a58f-e007c5d00714,chase,120,67.0,3.363,1,301,58
f8c01499-8009-448b-9476-a38a582d3db6,chase,150,72.0,2.676,1,301,59
e4dd3e31-b4f2-4f66-9e70-0665b6bcd089,chase,30,100.0,2.586,1,301,60
c8a1258a-1920-42bf-98e8-6c2dcc03a258,chase,60,100.0,2.802,1,301,61
92158ea9-b156-4e87-a2e3-ff0845033b9c,chase,150,9.0,4.736,1,301,62
ebb2b54b-03ef-482e-98e6-c30b11e93f54,chase,90,100.0,2.95,1,301,63
d145a05f-e3c9-4244-b83b-2792e29b0493,chase,150,57.0,3.576,1,301,64
f4c4b671-d1de-4b8d-adad-ab6e05900d81,chase,90,78.0,3.34,1,301,65
a680f7c6-9605-4481-a14d-c24d8d7b99bc,chase,30,100.0,3.027,1,301,66
42d1593c-1903-4c06-8304-6d2b29c5be37,chase,30,98.0,6.7,1,301,67
599df54c-434d-46db-a56a-5698a4ae9a9e,chase,150,0.0,3.528,1,301,68
45126725-a7eb-4318-86c4-1af84082e8b8,chase,30,100.0,2.721,1,301,69
2667cf6b-8ba8-4919-a871-ecd9b2852bce,chase,120,6.0,2.828,1,301,70
c798455f-e351-48ee-b7cd-d27d6bb7ad61,chase,60,100.0,3.107,1,301,71
dbce0a8f-ba45-4265-a60e-b98acd0e16d0,chase,150,23.0,3.752,1,301,72
cd35aaa0-2e49-4c68-9db3-f26fb9be29c5,chase,0,100.0,2.831,1,301,73
4b3782e4-fafc-4dd1-96aa-9b339f19d004,chase,0,100.0,3.274,1,301,74
84e883bc-3ec7-4bef-bdb3-2016001d7f47,chase,120,17.0,3.119,1,301,75
dad72227-6303-403d-8c8f-61b79d192ff4,chase,120,30.0,3.332,1,301,76
c5cf3c4d-84e7-4c90-a33b-9d7db4b01300,chase,0,100.0,2.796,1,301,77
bc18f2bb-8e1a-4fcf-bc63-d56da485f828,chase,90,88.0,2.891,1,301,78
c51864d5-4cd9-435e-8d8b-210c8454248a,chase,0,100.0,2.564,1,301,79
2383c97c-89dc-495f-8ec8-8a517a45ca6c,chase,90,87.0,2.791,1,301,80
81f068e9-cbbc-4d88-8e31-206979547986,chase,120,100.0,2.931,1,301,81
1d35e834-4947-46b2-9cbd-816ea4587c6f,wander,180,0.0,7.633,1,301,82
068dfd59-6b9c-4eca-b60c-7eb73cc72305,chase,0,100.0,2.889,1,301,83
8af66fd7-6ab4-47a3-a88c-02fd34772ac6,wander,180,21.0,4.162,0,304,0
58ff2cb6-e661-4be4-945c-d3f9ab5180c6,chase,150,46.0,3.078,1,304,1
92158ea9-b156-4e87-a2e3-ff0845033b9c,chase,150,11.0,3.394,1,304,2
7da2bf99-2525-456c-889d-33e4d57cefac,chase,150,59.0,2.926,1,304,3
884bc951-67a6-42bd-8ea7-ece0c8745d3f,chase,0,97.0,3.186,1,304,4
4e913eda-699f-4aa1-831d-c82fb169914c,chase,60,90.0,2.683,1,304,5
6d712780-43b4-49f9-9bb8-c6ef920b78bd,chase,0,89.0,3.213,1,304,6
4fb58057-109b-400f-8b1d-d9afc6926a6c,chase,60,88.0,2.945,1,304,7
18c4991b-f4d6-47a6-b29a-81f425410c0e,chase,120,58.0,4.108,1,304,8
ebb2b54b-03ef-482e-98e6-c30b11e93f54,chase,90,84.0,3.409,1,304,9
a680f7c6-9605-4481-a14d-c24d8d7b99bc,chase,30,93.0,3.333,1,304,10
184c8795-2f00-4c7d-bc10-bd7de3066a20,chase,60,74.0,2.403,1,304,11
e4dd3e31-b4f2-4f66-9e70-0665b6bcd089,chase,30,91.0,2.551,1,304,12
4fb304a5-e4d9-4469-a34d-360a50cb0d09,chase,60,77.0,2.335,1,304,13
981221b7-2aa0-476c-b101-390d6cc3dd1a,chase,120,37.0,2.739,1,304,14
1c695094-312c-450a-ac7f-f994dabb958d,wander,180,21.0,3.293,0,304,15
dad72227-6303-403d-8c8f-61b79d192ff4,chase,120,74.0,3.691,1,304,16
24724e9a-8a79-4ab8-a58f-e007c5d00714,chase,120,61.0,3.103,1,304,17
1d35e834-4947-46b2-9cbd-816ea4587c6f,wander,180,9.0,2.917,1,304,18
c40a4196-baf2-4992-afe5-aeca6b69a170,chase,30,89.0,4.349,1,304,19
599df54c-434d-46db-a56a-5698a4ae9a9e,chase,150,3.0,2.648,0,304,20
bee25e5c-74fd-4f63-b2e7-43b8af6bb08c,chase,90,71.0,2.654,1,304,21
ae7d3eb8-dc5d-447b-b5c5-9b30fb3b8314,chase,60,75.0,2.32,1,304,22
2667cf6b-8ba8-4919-a871-ecd9b2852bce,chase,120,56.0,2.95,1,304,23
116d4cf9-2d22-4e06-8fbf-248789f8212c,chase,150,12.0,2.218,0,304,24
42d1593c-1903-4c06-8304-6d2b29c5be37,chase,30,91.0,2.342,1,304,25
4f1db8f7-63a7-4e49-b31b-12adcf107bf0,chase,150,18.0,2.261,1,304,26
2437aa32-b54d-48e7-b20d-fafb63156eb0,chase,0,84.0,2.041,1,304,27
cd9d4d31-b57e-4c3d-86c6-267ce9eec948,chase,60,91.0,2.274,1,304,28
3dbf8de7-1bf7-4a43-a5e3-4366a94ea690,chase,90,79.0,3.371,1,304,29
7d329546-ecf4-4612-8f00-c127c77d5d6c,chase,60,90.0,2.081,1,304,30
068dfd59-6b9c-4eca-b60c-7eb73cc72305,chase,0,96.0,2.128,1,304,31
84e883bc-3ec7-4bef-bdb3-2016001d7f47,chase,120,57.0,1.764,1,304,32
c8a1258a-1920-42bf-98e8-6c2dcc03a258,chase,60,85.0,2.499,1,304,33
411043c2-72c5-48c5-8cb7-febcebc40f98,chase,30,82.0,2.058,1,304,34
f8c01499-8009-448b-9476-a38a582d3db6,chase,150,36.0,2.521,1,304,35
46975d67-ead1-4d29-93d2-9fbd40dad49d,wander,180,2.0,1.523,0,304,36
496c052f-24cd-4731-b1a3-dc6a8076719b,chase,120,75.0,2.495,1,304,37
0ea90462-f5e2-47a7-bd4b-2ea1c0bb7293,chase,60,85.0,2.941,1,304,38
2383c97c-89dc-495f-8ec8-8a517a45ca6c,chase,90,73.0,1.828,1,304,39
398e7f33-6d63-47e3-9a9a-74e474cd8a1d,chase,30,92.0,2.408,1,304,40
a763322d-d8ef-4998-b3d2-05767e0273f2,chase,150,43.0,2.441,0,304,41
2b3090fe-a6e0-4e32-8e43-767b0d526444,chase,60,82.0,1.916,1,304,42
64673dfa-0706-4fb2-a297-b988740292d5,chase,90,79.0,2.227,1,304,43
e5de8a7b-b080-44aa-9279-c42f7862e210,chase,0,87.0,1.614,1,304,44
81f068e9-cbbc-4d88-8e31-206979547986,chase,120,42.0,2.07,0,304,45
d145a05f-e3c9-4244-b83b-2792e29b0493,chase,150,39.0,2.131,1,304,46
b70d0259-cb69-48f1-b026-46452cf6e70f,wander,180,18.0,2.502,1,304,47
12ba80f8-98cb-4c76-836d-72c2d6364a8e,chase,120,38.0,2.256,0,304,48
2cf66fb7-ab1d-466b-be40-d9f856dc213f,wander,180,54.0,2.468,1,304,49
c4c5c990-2898-4b30-8454-9be48985cf75,chase,150,16.0,1.818,1,304,50
93865245-a3be-41b2-a17e-29b2b6043800,chase,90,68.0,2.048,1,304,51
2d4bdbd9-d1de-4787-8cc8-a317b9d4c68d,wander,180,6.0,1.757,1,304,52
9d561139-a905-406b-83a0-38ea62293ed9,chase,90,67.0,1.879,1,304,53
68be0cf8-ea92-4566-b84a-cbd60b2e5547,wander,180,23.0,3.218,0,304,54
c798455f-e351-48ee-b7cd-d27d6bb7ad61,chase,60,83.0,1.985,1,304,55
c1b6f573-136b-414a-a6ec-8628f66a51e1,chase,150,4.0,2.816,0,304,56
b75e278a-0fbd-474b-92b0-7038934dda4b,chase,30,88.0,2.568,1,304,57
f1ea4cb7-98d0-45a4-8269-16f1aebf05e3,chase,30,79.0,2.106,1,304,58
7f76ce9f-1463-4e78-87a4-6a54cd80ee88,chase,90,58.0,2.218,1,304,59
7ef8daac-db75-4ee8-a071-f88ace7368fa,chase,60,79.0,1.847,1,304,60
cd35aaa0-2e49-4c68-9db3-f26fb9be29c5,chase,0,85.0,1.98,1,304,61
bc18f2bb-8e1a-4fcf-bc63-d56da485f828,chase,90,79.0,2.363,1,304,62
cf6ad30a-98ab-45d8-98d9-92352096afee,chase,30,89.0,2.087,1,304,63
65c87d60-ca32-4b8c-862c-41cd8e585b4b,chase,0,73.0,2.119,1,304,64
c5cf3c4d-84e7-4c90-a33b-9d7db4b01300,chase,0,82.0,1.997,1,304,65
45126725-a7eb-4318-86c4-1af84082e8b8,chase,30,71.0,1.582,1,304,66
67a027b6-67e1-4784-aaad-ab48b5731cca,chase,0,81.0,2.509,1,304,67
86edbcec-0b0a-41d9-9c9e-d5df43732237,chase,30,82.0,1.807,1,304,68
dbce0a8f-ba45-4265-a60e-b98acd0e16d0,chase,150,38.0,1.836,1,304,69
5dbc75c6-6973-4ae1-aaf0-d3b84feb4723,wander,180,1.0,2.513,1,304,70
64e6dcf6-35e5-46ef-8d1c-80a6786a24f6,chase,90,71.0,1.905,1,304,71
5ce017a9-f595-403c-a861-53e49993751a,wander,180,47.0,3.254,1,304,72
1a3da098-0a3a-43af-af4a-a9fad5adcce6,chase,90,76.0,2.027,1,304,73
b3b1ce6f-50f4-4922-80d2-b53f06819db2,chase,120,78.0,1.838,1,304,74
c51864d5-4cd9-435e-8d8b-210c8454248a,chase,0,75.0,1.931,1,304,75
f4c4b671-d1de-4b8d-adad-ab6e05900d81,chase,90,77.0,1.875,1,304,76
21ca5095-0a92-499b-9d26-d8a5f4a0841a,wander,180,12.0,1.984,1,304,77
f9e978d5-51e5-401a-8c9a-df747f2dec53,chase,0,93.0,1.877,1,304,78
738dba2c-d7cb-488e-b971-0dc50c74bf4b,chase,30,88.0,1.679,1,304,79
6164475a-8bff-4ee0-8fef-043a34cd7da5,chase,120,53.0,3.34,1,304,80
4b3782e4-fafc-4dd1-96aa-9b339f19d004,chase,0,82.0,2.023,1,304,81
977e0607-6332-4db4-ab12-9d17dce4dc85,wander,180,53.0,3.361,1,304,82
0ea38b84-b2dc-4072-b4b8-3dce5f53debc,chase,120,54.0,2.371,1,304,83
184c8795-2f00-4c7d-bc10-bd7de3066a20,chase,60,100.0,2.833,1,123,0
24724e9a-8a79-4ab8-a58f-e007c5d00714,chase,120,65.0,2.659,1,123,1
f9e978d5-51e5-401a-8c9a-df747f2dec53,chase,0,51.0,2.292,1,123,2
67a027b6-67e1-4784-aaad-ab48b5731cca,chase,0,100.0,3.168,1,123,3
68be0cf8-ea92-4566-b84a-cbd60b2e5547,wander,180,28.0,3.806,1,123,4
d145a05f-e3c9-4244-b83b-2792e29b0493,chase,150,42.0,2.551,1,123,5
f4c4b671-d1de-4b8d-adad-ab6e05900d81,chase,90,72.0,1.886,1,123,6
64e6dcf6-35e5-46ef-8d1c-80a6786a24f6,chase,90,87.0,1.912,1,123,7
cf6ad30a-98ab-45d8-98d9-92352096afee,chase,30,100.0,1.869,1,123,8
7da2bf99-2525-456c-889d-33e4d57cefac,chase,150,35.0,2.175,1,123,9
5dbc75c6-6973-4ae1-aaf0-d3b84feb4723,wander,180,0.0,2.101,1,123,10
1c695094-312c-450a-ac7f-f994dabb958d,wander,180,4.0,2.259,1,123,11
2b3090fe-a6e0-4e32-8e43-767b0d526444,chase,60,95.0,2.562,1,123,12
5ce017a9-f595-403c-a861-53e49993751a,wander,180,31.0,1.804,1,123,13
64673dfa-0706-4fb2-a297-b988740292d5,chase,90,63.0,1.903,1,123,14
c4c5c990-2898-4b30-8454-9be48985cf75,chase,150,27.0,2.926,1,123,15
93865245-a3be-41b2-a17e-29b2b6043800,chase,90,90.0,1.922,1,123,16
4e913eda-699f-4aa1-831d-c82fb169914c,chase,60,94.0,2.277,1,123,17
c798455f-e351-48ee-b7cd-d27d6bb7ad61,chase,60,97.0,2.0,1,123,18
4fb58057-109b-400f-8b1d-d9afc6926a6c,chase,60,87.0,1.679,1,123,19
ae7d3eb8-dc5d-447b-b5c5-9b30fb3b8314,chase,60,92.0,2.097,1,123,20
f1ea4cb7-98d0-45a4-8269-16f1aebf05e3,chase,30,99.0,1.872,1,123,21
21ca5095-0a92-499b-9d26-d8a5f4a0841a,wander,180,26.0,4.609,0,123,22
81f068e9-cbbc-4d88-8e31-206979547986,chase,120,63.0,1.876,1,123,23
65c87d60-ca32-4b8c-862c-41cd8e585b4b,chase,0,100.0,3.391,1,123,24
8af66fd7-6ab4-47a3-a88c-02fd34772ac6,wander,180,0.0,1.881,1,123,25
cd35aaa0-2e49-4c68-9db3-f26fb9be29c5,chase,0,100.0,1.726,1,123,26
4fb304a5-e4d9-4469-a34d-360a50cb0d09,chase,60,93.0,1.852,1,123,27
9d561139-a905-406b-83a0-38ea62293ed9,chase,90,63.0,1.967,1,123,28
58ff2cb6-e661-4be4-945c-d3f9ab5180c6,chase,150,37.0,2.41,1,123,29
cd9d4d31-b57e-4c3d-86c6-267ce9eec948,chase,60,100.0,2.06,1,123,30
bc18f2bb-8e1a-4fcf-bc63-d56da485f828,chase,90,60.0,1.957,1,123,31
b70d0259-cb69-48f1-b026-46452cf6e70f,wander,180,30.0,2.041,0,123,32
7d329546-ecf4-4612-8f00-c127c77d5d6c,chase,60,100.0,1.525,1,123,33
46975d67-ead1-4d29-93d2-9fbd40dad49d,wander,180,0.0,2.738,0,123,34
2437aa32-b54d-48e7-b20d-fafb63156eb0,chase,0,100.0,1.678,1,123,35
e5de8a7b-b080-44aa-9279-c42f7862e210,chase,0,100.0,1.627,1,123,36
1d35e834-4947-46b2-9cbd-816ea4587c6f,wander,180,0.0,1.998,1,123,37
a763322d-d8ef-4998-b3d2-05767e0273f2,chase,150,0.0,1.793,1,123,38
599df54c-434d-46db-a56a-5698a4ae9a9e,chase,150,1.0,1.849,1,123,39
bee25e5c-74fd-4f63-b2e7-43b8af6bb08c,chase,90,100.0,1.847,1,123,40
ebb2b54b-03ef-482e-98e6-c30b11e93f54,chase,90,100.0,2.285,1,123,41
738dba2c-d7cb-488e-b971-0dc50c74bf4b,chase,30,100.0,1.785,1,123,42
c8a1258a-1920-42bf-98e8-6c2dcc03a258,chase,60,100.0,1.553,1,123,43
c51864d5-4cd9-435e-8d8b-210c8454248a,chase,0,100.0,2.223,1,123,44
6164475a-8bff-4ee0-8fef-043a34cd7da5,chase,120,7.0,1.596,1,123,45
84e883bc-3ec7-4bef-bdb3-2016001d7f47,chase,120,11.0,1.644,1,123,46
7f76ce9f-1463-4e78-87a4-6a54cd80ee88,chase,90,81.0,1.599,1,123,47
92158ea9-b156-4e87-a2e3-ff0845033b9c,chase,150,0.0,1.809,1,123,48
496c052f-24cd-4731-b1a3-dc6a8076719b,chase,120,5.0,1.826,0,123,49
dad72227-6303-403d-8c8f-61b79d192ff4,chase,120,8.0,1.44,1,123,50
c5cf3c4d-84e7-4c90-a33b-9d7db4b01300,chase,0,100.0,1.521,1,123,51
884bc951-67a6-42bd-8ea7-ece0c8745d3f,chase,0,99.0,1.627,1,123,52
116d4cf9-2d22-4e06-8fbf-248789f8212c,chase,150,1.0,2.111,1,123,53
b3b1ce6f-50f4-4922-80d2-b53f06819db2,chase,120,56.0,1.926,1,123,54
7ef8daac-db75-4ee8-a071-f88ace7368fa,chase,60,100.0,3.169,1,123,55
411043c2-72c5-48c5-8cb7-febcebc40f98,chase,30,100.0,1.639,1,123,56
398e7f33-6d63-47e3-9a9a-74e474cd8a1d,chase,30,100.0,1.47,1,123,57
0ea38b84-b2dc-4072-b4b8-3dce5f53debc,chase,120,97.0,1.531,1,123,58
e4dd3e31-b4f2-4f66-9e70-0665b6bcd089,chase,30,100.0,1.709,1,123,59
c1b6f573-136b-414a-a6ec-8628f66a51e1,chase,150,0.0,2.127,1,123,60
42d1593c-1903-4c06-8304-6d2b29c5be37,chase,30,100.0,1.701,1,123,61
981221b7-2aa0-476c-b101-390d6cc3dd1a,chase,120,56.0,1.919,1,123,62
6d712780-43b4-49f9-9bb8-c6ef920b78bd,chase,0,100.0,1.611,1,123,63
0ea90462-f5e2-47a7-bd4b-2ea1c0bb7293,chase,60,97.0,1.763,1,123,64
2667cf6b-8ba8-4919-a871-ecd9b2852bce,chase,120,40.0,2.052,1,123,65
12ba80f8-98cb-4c76-836d-72c2d6364a8e,chase,120,40.0,1.601,1,123,66
45126725-a7eb-4318-86c4-1af84082e8b8,chase,30,100.0,1.785,1,123,67
2383c97c-89dc-495f-8ec8-8a517a45ca6c,chase,90,59.0,1.941,1,123,68
c40a4196-baf2-4992-afe5-aeca6b69a170,chase,30,94.0,1.623,1,123,69
dbce0a8f-ba45-4265-a60e-b98acd0e16d0,chase,150,13.0,2.387,0,123,70
b75e278a-0fbd-474b-92b0-7038934dda4b,chase,30,100.0,1.977,1,123,71
1a3da098-0a3a-43af-af4a-a9fad5adcce6,chase,90,94.0,1.807,1,123,72
f8c01499-8009-448b-9476-a38a582d3db6,chase,150,10.0,2.504,1,123,73
068dfd59-6b9c-4eca-b60c-7eb73cc72305,chase,0,99.0,2.215,1,123,74
18c4991b-f4d6-47a6-b29a-81f425410c0e,chase,120,3.0,1.511,0,123,75
3dbf8de7-1bf7-4a43-a5e3-4366a94ea690,chase,90,97.0,1.574,1,123,76
a680f7c6-9605-4481-a14d-c24d8d7b99bc,chase,30,98.0,1.513,1,123,77
86edbcec-0b0a-41d9-9c9e-d5df43732237,chase,30,99.0,1.741,1,123,78
4f1db8f7-63a7-4e49-b31b-12adcf107bf0,chase,150,0.0,6.612,1,123,79
2d4bdbd9-d1de-4787-8cc8-a317b9d4c68d,wander,180,1.0,9.235,1,123,80
4b3782e4-fafc-4dd1-96aa-9b339f19d004,chase,0,94.0,1.624,1,123,81
2cf66fb7-ab1d-466b-be40-d9f856dc213f,wander,180,2.0,2.008,0,123,82
977e0607-6332-4db4-ab12-9d17dce4dc85,wander,180,2.0,1.653,0,123,83
0ea38b84-b2dc-4072-b4b8-3dce5f53debc,chase,120,56.0,3.516,1,253,0
5ce017a9-f595-403c-a861-53e49993751a,wander,180,30.0,9.647,1,253,1
bee25e5c-74fd-4f63-b2e7-43b8af6bb08c,chase,90,79.0,2.904,1,253,2
5dbc75c6-6973-4ae1-aaf0-d3b84feb4723,wander,180,32.0,4.502,1,253,3
b70d0259-cb69-48f1-b026-46452cf6e70f,wander,180,82.0,4.348,0,253,4
981221b7-2aa0-476c-b101-390d6cc3dd1a,chase,120,53.0,3.83,1,253,5
4b3782e4-fafc-4dd1-96aa-9b339f19d004,chase,0,91.0,5.072,1,253,6
cf6ad30a-98ab-45d8-98d9-92352096afee,chase,30,92.0,7.631,1,253,7
9d561139-a905-406b-83a0-38ea62293ed9,chase,90,69.0,2.82,1,253,8
42d1593c-1903-4c06-8304-6d2b29c5be37,chase,30,86.0,4.005,1,253,9
c798455f-e351-48ee-b7cd-d27d6bb7ad61,chase,60,84.0,2.921,1,253,10
599df54c-434d-46db-a56a-5698a4ae9a9e,chase,150,34.0,3.349,0,253,11
84e883bc-3ec7-4bef-bdb3-2016001d7f47,chase,120,55.0,4.502,1,253,12
46975d67-ead1-4d29-93d2-9fbd40dad49d,wander,180,10.0,3.845,0,253,13
12ba80f8-98cb-4c76-836d-72c2d6364a8e,chase,120,60.0,3.194,1,253,14
2667cf6b-8ba8-4919-a871-ecd9b2852bce,chase,120,42.0,5.62,1,253,15
068dfd59-6b9c-4eca-b60c-7eb73cc72305,chase,0,72.0,4.934,1,253,16
496c052f-24cd-4731-b1a3-dc6a8076719b,chase,120,55.0,3.468,1,253,17
cd35aaa0-2e49-4c68-9db3-f26fb9be29c5,chase,0,91.0,5.43,1,253,18
4f1db8f7-63a7-4e49-b31b-12adcf107bf0,chase,150,12.0,4.331,1,253,19
738dba2c-d7cb-488e-b971-0dc50c74bf4b,chase,30,90.0,3.195,1,253,20
7f76ce9f-1463-4e78-87a4-6a54cd80ee88,chase,90,68.0,6.28,1,253,21
cd9d4d31-b57e-4c3d-86c6-267ce9eec948,chase,60,89.0,3.663,1,253,22
ebb2b54b-03ef-482e-98e6-c30b11e93f54,chase,90,87.0,3.057,1,253,23
2437aa32-b54d-48e7-b20d-fafb63156eb0,chase,0,88.0,4.097,1,253,24
58ff2cb6-e661-4be4-945c-d3f9ab5180c6,chase,150,56.0,3.146,1,253,25
116d4cf9-2d22-4e06-8fbf-248789f8212c,chase,150,13.0,5.763,0,253,26
f9e978d5-51e5-401a-8c9a-df747f2dec53,chase,0,88.0,2.841,1,253,27
2b3090fe-a6e0-4e32-8e43-767b0d526444,chase,60,91.0,2.91,1,253,28
884bc951-67a6-42bd-8ea7-ece0c8745d3f,chase,0,98.0,3.141,1,253,29
f8c01499-8009-448b-9476-a38a582d3db6,chase,150,53.0,5.74,1,253,30
c40a4196-baf2-4992-afe5-aeca6b69a170,chase,30,89.0,3.52,1,253,31
65c87d60-ca32-4b8c-862c-41cd8e585b4b,chase,0,94.0,3.557,1,253,32
4e913eda-699f-4aa1-831d-c82fb169914c,chase,60,78.0,4.479,1,253,33
3dbf8de7-1bf7-4a43-a5e3-4366a94ea690,chase,90,73.0,3.008,1,253,34
b3b1ce6f-50f4-4922-80d2-b53f06819db2,chase,120,71.0,2.879,1,253,35
2d4bdbd9-d1de-4787-8cc8-a317b9d4c68d,wander,180,38.0,4.358,1,253,36
64e6dcf6-35e5-46ef-8d1c-80a6786a24f6,chase,90,77.0,2.897,1,253,37
7d329546-ecf4-4612-8f00-c127c77d5d6c,chase,60,92.0,3.56,1,253,38
18c4991b-f4d6-47a6-b29a-81f425410c0e,chase,120,56.0,6.439,0,253,39
977e0607-6332-4db4-ab12-9d17dce4dc85,wander,180,42.0,3.211,1,253,40
64673dfa-0706-4fb2-a297-b988740292d5,chase,90,71.0,2.813,1,253,41
68be0cf8-ea92-4566-b84a-cbd60b2e5547,wander,180,60.0,2.502,0,253,42
f4c4b671-d1de-4b8d-adad-ab6e05900d81,chase,90,70.0,2.266,1,253,43
0ea90462-f5e2-47a7-bd4b-2ea1c0bb7293,chase,60,74.0,3.627,1,253,44
dbce0a8f-ba45-4265-a60e-b98acd0e16d0,chase,150,53.0,4.989,1,253,45
4fb58057-109b-400f-8b1d-d9afc6926a6c,chase,60,91.0,2.741,1,253,46
8af66fd7-6ab4-47a3-a88c-02fd34772ac6,wander,180,37.0,4.109,1,253,47
7ef8daac-db75-4ee8-a071-f88ace7368fa,chase,60,91.0,2.908,1,253,48
1d35e834-4947-46b2-9cbd-816ea4587c6f,wander,180,32.0,3.351,1,253,49
c51864d5-4cd9-435e-8d8b-210c8454248a,chase,0,97.0,3.347,1,253,50
6d712780-43b4-49f9-9bb8-c6ef920b78bd,chase,0,95.0,2.77,1,253,51
21ca5095-0a92-499b-9d26-d8a5f4a0841a,wander,180,45.0,4.016,1,253,52
93865245-a3be-41b2-a17e-29b2b6043800,chase,90,70.0,3.433,1,253,53
24724e9a-8a79-4ab8-a58f-e007c5d00714,chase,120,55.0,3.018,1,253,54
184c8795-2f00-4c7d-bc10-bd7de3066a20,chase,60,79.0,2.921,1,253,55
1c695094-312c-450a-ac7f-f994dabb958d,wander,180,35.0,2.857,1,253,56
1a3da098-0a3a-43af-af4a-a9fad5adcce6,chase,90,80.0,2.372,1,253,57
ae7d3eb8-dc5d-447b-b5c5-9b30fb3b8314,chase,60,80.0,3.912,1,253,58
dad72227-6303-403d-8c8f-61b79d192ff4,chase,120,45.0,7.748,1,253,59
c1b6f573-136b-414a-a6ec-8628f66a51e1,chase,150,15.0,3.351,1,253,60
67a027b6-67e1-4784-aaad-ab48b5731cca,chase,0,92.0,3.435,1,253,61
c4c5c990-2898-4b30-8454-9be48985cf75,chase,150,23.0,3.258,1,253,62
45126725-a7eb-4318-86c4-1af84082e8b8,chase,30,93.0,3.028,1,253,63
2cf66fb7-ab1d-466b-be40-d9f856dc213f,wander,180,45.0,4.726,1,253,64
e4dd3e31-b4f2-4f66-9e70-0665b6bcd089,chase,30,78.0,7.221,1,253,65
e5de8a7b-b080-44aa-9279-c42f7862e210,chase,0,90.0,2.794,1,253,66
411043c2-72c5-48c5-8cb7-febcebc40f98,chase,30,87.0,3.64,1,253,67
a763322d-d8ef-4998-b3d2-05767e0273f2,chase,150,22.0,3.36,1,253,68
6164475a-8bff-4ee0-8fef-043a34cd7da5,chase,120,57.0,3.202,1,253,69
f1ea4cb7-98d0-45a4-8269-16f1aebf05e3,chase,30,78.0,3.863,1,253,70
bc18f2bb-8e1a-4fcf-bc63-d56da485f828,chase,90,74.0,2.365,1,253,71
c8a1258a-1920-42bf-98e8-6c2dcc03a258,chase,60,86.0,2.599,1,253,72
7da2bf99-2525-456c-889d-33e4d57cefac,chase,150,53.0,5.218,1,253,73
a680f7c6-9605-4481-a14d-c24d8d7b99bc,chase,30,92.0,3.219,1,253,74
86edbcec-0b0a-41d9-9c9e-d5df43732237,chase,30,90.0,3.063,1,253,75
2383c97c-89dc-495f-8ec8-8a517a45ca6c,chase,90,55.0,3.245,1,253,76
d145a05f-e3c9-4244-b83b-2792e29b0493,chase,150,54.0,3.283,1,253,77
b75e278a-0fbd-474b-92b0-7038934dda4b,chase,30,93.0,2.786,1,253,78
398e7f33-6d63-47e3-9a9a-74e474cd8a1d,chase,30,93.0,2.59,1,253,79
4fb304a5-e4d9-4469-a34d-360a50cb0d09,chase,60,84.0,2.394,1,253,80
81f068e9-cbbc-4d88-8e31-206979547986,chase,120,81.0,2.5,1,253,81
92158ea9-b156-4e87-a2e3-ff0845033b9c,chase,150,30.0,3.773,1,253,82
c5cf3c4d-84e7-4c90-a33b-9d7db4b01300,chase,0,87.0,4.118,1,253,83
599df54c-434d-46db-a56a-5698a4ae9a9e,chase,150,6.0,8.598,1,208,0
64673dfa-0706-4fb2-a297-b988740292d5,chase,90,86.0,3.889,1,208,1
184c8795-2f00-4c7d-bc10-bd7de3066a20,chase,60,89.0,3.984,1,208,2
93865245-a3be-41b2-a17e-29b2b6043800,chase,90,62.0,4.871,1,208,3
398e7f33-6d63-47e3-9a9a-74e474cd8a1d,chase,30,97.0,4.247,1,208,4
c1b6f573-136b-414a-a6ec-8628f66a51e1,chase,150,5.0,4.058,0,208,5
45126725-a7eb-4318-86c4-1af84082e8b8,chase,30,97.0,3.299,1,208,6
496c052f-24cd-4731-b1a3-dc6a8076719b,chase,120,8.0,8.202,1,208,7
86edbcec-0b0a-41d9-9c9e-d5df43732237,chase,30,97.0,3.19,1,208,8
b75e278a-0fbd-474b-92b0-7038934dda4b,chase,30,97.0,5.878,1,208,9
f1ea4cb7-98d0-45a4-8269-16f1aebf05e3,chase,30,98.0,4.317,1,208,10
0ea90462-f5e2-47a7-bd4b-2ea1c0bb7293,chase,60,84.0,3.725,1,208,11
12ba80f8-98cb-4c76-836d-72c2d6364a8e,chase,120,53.0,7.294,1,208,12
cd35aaa0-2e49-4c68-9db3-f26fb9be29c5,chase,0,76.0,3.871,1,208,13
ae7d3eb8-dc5d-447b-b5c5-9b30fb3b8314,chase,60,80.0,4.104,1,208,14
c40a4196-baf2-4992-afe5-aeca6b69a170,chase,30,91.0,3.383,1,208,15
116d4cf9-2d22-4e06-8fbf-248789f8212c,chase,150,12.0,3.881,1,208,16
c4c5c990-2898-4b30-8454-9be48985cf75,chase,150,37.0,5.142,1,208,17
2cf66fb7-ab1d-466b-be40-d9f856dc213f,wander,180,21.0,4.103,1,208,18
b70d0259-cb69-48f1-b026-46452cf6e70f,wander,180,8.0,3.989,0,208,19
68be0cf8-ea92-4566-b84a-cbd60b2e5547,wander,180,54.0,3.695,1,208,20
46975d67-ead1-4d29-93d2-9fbd40dad49d,wander,180,40.0,4.644,0,208,21
c5cf3c4d-84e7-4c90-a33b-9d7db4b01300,chase,0,85.0,4.877,1,208,22
4fb304a5-e4d9-4469-a34d-360a50cb0d09,chase,60,85.0,4.069,1,208,23
c798455f-e351-48ee-b7cd-d27d6bb7ad61,chase,60,80.0,4.229,1,208,24
4b3782e4-fafc-4dd1-96aa-9b339f19d004,chase,0,83.0,6.476,1,208,25
cf6ad30a-98ab-45d8-98d9-92352096afee,chase,30,79.0,3.683,1,208,26
d145a05f-e3c9-4244-b83b-2792e29b0493,chase,150,55.0,3.763,1,208,27
58ff2cb6-e661-4be4-945c-d3f9ab5180c6,chase,150,36.0,3.794,1,208,28
738dba2c-d7cb-488e-b971-0dc50c74bf4b,chase,30,94.0,4.251,1,208,29
3dbf8de7-1bf7-4a43-a5e3-4366a94ea690,chase,90,91.0,3.137,1,208,30
65c87d60-ca32-4b8c-862c-41cd8e585b4b,chase,0,86.0,3.316,1,208,31
24724e9a-8a79-4ab8-a58f-e007c5d00714,chase,120,53.0,3.962,1,208,32
b3b1ce6f-50f4-4922-80d2-b53f06819db2,chase,120,75.0,3.063,1,208,33
a763322d-d8ef-4998-b3d2-05767e0273f2,chase,150,14.0,5.714,1,208,34
7d329546-ecf4-4612-8f00-c127c77d5d6c,chase,60,82.0,3.091,1,208,35
068dfd59-6b9c-4eca-b60c-7eb73cc72305,chase,0,91.0,3.678,1,208,36
4f1db8f7-63a7-4e49-b31b-12adcf107bf0,chase,150,13.0,4.221,1,208,37
e5de8a7b-b080-44aa-9279-c42f7862e210,chase,0,87.0,3.389,1,208,38
2383c97c-89dc-495f-8ec8-8a517a45ca6c,chase,90,69.0,3.933,0,208,39
a680f7c6-9605-4481-a14d-c24d8d7b99bc,chase,30,83.0,3.851,1,208,40
7ef8daac-db75-4ee8-a071-f88ace7368fa,chase,60,83.0,3.103,1,208,41
cd9d4d31-b57e-4c3d-86c6-267ce9eec948,chase,60,83.0,2.936,1,208,42
dad72227-6303-403d-8c8f-61b79d192ff4,chase,120,39.0,3.459,0,208,43
f9e978d5-51e5-401a-8c9a-df747f2dec53,chase,0,93.0,5.294,1,208,44
18c4991b-f4d6-47a6-b29a-81f425410c0e,chase,120,29.0,4.767,1,208,45
5dbc75c6-6973-4ae1-aaf0-d3b84feb4723,wander,180,11.0,4.555,1,208,46
8af66fd7-6ab4-47a3-a88c-02fd34772ac6,wander,180,51.0,9.281,1,208,47
84e883bc-3ec7-4bef-bdb3-2016001d7f47,chase,120,53.0,3.366,1,208,48
64e6dcf6-35e5-46ef-8d1c-80a6786a24f6,chase,90,87.0,3.219,1,208,49
dbce0a8f-ba45-4265-a60e-b98acd0e16d0,chase,150,28.0,3.715,1,208,50
9d561139-a905-406b-83a0-38ea62293ed9,chase,90,78.0,4.778,1,208,51
2437aa32-b54d-48e7-b20d-fafb63156eb0,chase,0,84.0,4.227,1,208,52
6d712780-43b4-49f9-9bb8-c6ef920b78bd,chase,0,89.0,3.061,1,208,53
0ea38b84-b2dc-4072-b4b8-3dce5f53debc,chase,120,55.0,3.883,1,208,54
bee25e5c-74fd-4f63-b2e7-43b8af6bb08c,chase,90,74.0,3.963,1,208,55
1d35e834-4947-46b2-9cbd-816ea4587c6f,wander,180,12.0,5.282,0,208,56
67a027b6-67e1-4784-aaad-ab48b5731cca,chase,0,91.0,3.71,1,208,57
977e0607-6332-4db4-ab12-9d17dce4dc85,wander,180,43.0,4.114,0,208,58
92158ea9-b156-4e87-a2e3-ff0845033b9c,chase,150,9.0,4.577,1,208,59
7f76ce9f-1463-4e78-87a4-6a54cd80ee88,chase,90,74.0,3.396,1,208,60
bc18f2bb-8e1a-4fcf-bc63-d56da485f828,chase,90,77.0,3.689,1,208,61
81f068e9-cbbc-4d88-8e31-206979547986,chase,120,76.0,3.613,1,208,62
2b3090fe-a6e0-4e32-8e43-767b0d526444,chase,60,90.0,3.658,1,208,63
42d1593c-1903-4c06-8304-6d2b29c5be37,chase,30,94.0,3.458,1,208,64
884bc951-67a6-42bd-8ea7-ece0c8745d3f,chase,0,93.0,3.289,1,208,65
f8c01499-8009-448b-9476-a38a582d3db6,chase,150,35.0,3.223,0,208,66
7da2bf99-2525-456c-889d-33e4d57cefac,chase,150,7.0,6.017,0,208,67
e4dd3e31-b4f2-4f66-9e70-0665b6bcd089,chase,30,88.0,2.813,1,208,68
2667cf6b-8ba8-4919-a871-ecd9b2852bce,chase,120,52.0,3.601,1,208,69
c51864d5-4cd9-435e-8d8b-210c8454248a,chase,0,78.0,2.997,1,208,70
f4c4b671-d1de-4b8d-adad-ab6e05900d81,chase,90,49.0,6.378,1,208,71
ebb2b54b-03ef-482e-98e6-c30b11e93f54,chase,90,66.0,2.864,1,208,72
1c695094-312c-450a-ac7f-f994dabb958d,wander,180,7.0,4.315,1,208,73
c8a1258a-1920-42bf-98e8-6c2dcc03a258,chase,60,94.0,3.05,1,208,74
981221b7-2aa0-476c-b101-390d6cc3dd1a,chase,120,52.0,3.635,1,208,75
2d4bdbd9-d1de-4787-8cc8-a317b9d4c68d,wander,180,0.0,3.441,0,208,76
4fb58057-109b-400f-8b1d-d9afc6926a6c,chase,60,75.0,4.249,1,208,77
6164475a-8bff-4ee0-8fef-043a34cd7da5,chase,120,35.0,3.57,1,208,78
21ca5095-0a92-499b-9d26-d8a5f4a0841a,wander,180,2.0,4.736,0,208,79
411043c2-72c5-48c5-8cb7-febcebc40f98,chase,30,93.0,3.167,1,208,80
4e913eda-699f-4aa1-831d-c82fb169914c,chase,60,98.0,3.773,1,208,81
1a3da098-0a3a-43af-af4a-a9fad5adcce6,chase,90,56.0,3.687,1,208,82
5ce017a9-f595-403c-a861-53e49993751a,wander,180,47.0,4.926,1,208,83
cf6ad30a-98ab-45d8-98d9-92352096afee,chase,30,99.0,2.799,1,222,0
2437aa32-b54d-48e7-b20d-fafb63156eb0,chase,0,92.0,3.055,1,222,1
18c4991b-f4d6-47a6-b29a-81f425410c0e,chase,120,18.0,2.371,1,222,2
b3b1ce6f-50f4-4922-80d2-b53f06819db2,chase,120,44.0,2.929,1,222,3
398e7f33-6d63-47e3-9a9a-74e474cd8a1d,chase,30,99.0,2.569,1,222,4
b70d0259-cb69-48f1-b026-46452cf6e70f,wander,180,14.0,2.338,0,222,5
884bc951-67a6-42bd-8ea7-ece0c8745d3f,chase,0,98.0,1.956,1,222,6
6164475a-8bff-4ee0-8fef-043a34cd7da5,chase,120,79.0,2.238,1,222,7
b75e278a-0fbd-474b-92b0-7038934dda4b,chase,30,75.0,2.883,1,222,8
93865245-a3be-41b2-a17e-29b2b6043800,chase,90,77.0,3.02,1,222,9
2b3090fe-a6e0-4e32-8e43-767b0d526444,chase,60,88.0,2.034,1,222,10
bc18f2bb-8e1a-4fcf-bc63-d56da485f828,chase,90,85.0,1.753,1,222,11
411043c2-72c5-48c5-8cb7-febcebc40f98,chase,30,91.0,2.454,1,222,12
068dfd59-6b9c-4eca-b60c-7eb73cc72305,chase,0,99.0,2.401,1,222,13
ae7d3eb8-dc5d-447b-b5c5-9b30fb3b8314,chase,60,36.0,2.879,1,222,14
7f76ce9f-1463-4e78-87a4-6a54cd80ee88,chase,90,20.0,2.147,1,222,15
3dbf8de7-1bf7-4a43-a5e3-4366a94ea690,chase,90,74.0,2.112,1,222,16
46975d67-ead1-4d29-93d2-9fbd40dad49d,wander,180,0.0,3.09,0,222,17
42d1593c-1903-4c06-8304-6d2b29c5be37,chase,30,97.0,1.986,1,222,18
9d561139-a905-406b-83a0-38ea62293ed9,chase,90,84.0,2.315,1,222,19
7ef8daac-db75-4ee8-a071-f88ace7368fa,chase,60,87.0,2.11,1,222,20
4b3782e4-fafc-4dd1-96aa-9b339f19d004,chase,0,89.0,2.048,1,222,21
f4c4b671-d1de-4b8d-adad-ab6e05900d81,chase,90,64.0,2.304,1,222,22
84e883bc-3ec7-4bef-bdb3-2016001d7f47,chase,120,12.0,3.2,1,222,23
65c87d60-ca32-4b8c-862c-41cd8e585b4b,chase,0,96.0,2.173,1,222,24
bee25e5c-74fd-4f63-b2e7-43b8af6bb08c,chase,90,81.0,2.118,1,222,25
184c8795-2f00-4c7d-bc10-bd7de3066a20,chase,60,88.0,1.956,1,222,26
496c052f-24cd-4731-b1a3-dc6a8076719b,chase,120,14.0,2.821,0,222,27
f1ea4cb7-98d0-45a4-8269-16f1aebf05e3,chase,30,86.0,2.548,1,222,28
c1b6f573-136b-414a-a6ec-8628f66a51e1,chase,150,3.0,2.365,1,222,29
21ca5095-0a92-499b-9d26-d8a5f4a0841a,wander,180,3.0,1.745,0,222,30
92158ea9-b156-4e87-a2e3-ff0845033b9c,chase,150,0.0,2.354,1,222,31
a763322d-d8ef-4998-b3d2-05767e0273f2,chase,150,6.0,1.788,1,222,32
599df54c-434d-46db-a56a-5698a4ae9a9e,chase,150,9.0,1.722,0,222,33
1d35e834-4947-46b2-9cbd-816ea4587c6f,wander,180,12.0,2.168,1,222,34
c4c5c990-2898-4b30-8454-9be48985cf75,chase,150,53.0,2.576,1,222,35
4f1db8f7-63a7-4e49-b31b-12adcf107bf0,chase,150,5.0,1.839,1,222,36
45126725-a7eb-4318-86c4-1af84082e8b8,chase,30,99.0,2.063,1,222,37
738dba2c-d7cb-488e-b971-0dc50c74bf4b,chase,30,100.0,2.635,1,222,38
dbce0a8f-ba45-4265-a60e-b98acd0e16d0,chase,150,42.0,2.083,1,222,39
cd35aaa0-2e49-4c68-9db3-f26fb9be29c5,chase,0,98.0,1.697,1,222,40
ebb2b54b-03ef-482e-98e6-c30b11e93f54,chase,90,86.0,1.878,1,222,41
5dbc75c6-6973-4ae1-aaf0-d3b84feb4723,wander,180,65.0,2.562,1,222,42
cd9d4d31-b57e-4c3d-86c6-267ce9eec948,chase,60,98.0,2.534,1,222,43
12ba80f8-98cb-4c76-836d-72c2d6364a8e,chase,120,21.0,2.337,0,222,44
1c695094-312c-450a-ac7f-f994dabb958d,wander,180,31.0,2.501,0,222,45
64e6dcf6-35e5-46ef-8d1c-80a6786a24f6,chase,90,97.0,1.795,1,222,46
f8c01499-8009-448b-9476-a38a582d3db6,chase,150,43.0,2.671,1,222,47
c798455f-e351-48ee-b7cd-d27d6bb7ad61,chase,60,97.0,2.578,1,222,48
4e913eda-699f-4aa1-831d-c82fb169914c,chase,60,95.0,2.161,1,222,49
c40a4196-baf2-4992-afe5-aeca6b69a170,chase,30,85.0,1.807,1,222,50
4fb304a5-e4d9-4469-a34d-360a50cb0d09,chase,60,91.0,2.188,1,222,51
2cf66fb7-ab1d-466b-be40-d9f856dc213f,wander,180,94.0,2.097,1,222,52
e4dd3e31-b4f2-4f66-9e70-0665b6bcd089,chase,30,99.0,2.243,1,222,53
1a3da098-0a3a-43af-af4a-a9fad5adcce6,chase,90,97.0,1.92,1,222,54
24724e9a-8a79-4ab8-a58f-e007c5d00714,chase,120,64.0,3.961,1,222,55
81f068e9-cbbc-4d88-8e31-206979547986,chase,120,52.0,2.744,1,222,56
7d329546-ecf4-4612-8f00-c127c77d5d6c,chase,60,95.0,2.184,1,222,57
58ff2cb6-e661-4be4-945c-d3f9ab5180c6,chase,150,61.0,2.777,1,222,58
c5cf3c4d-84e7-4c90-a33b-9d7db4b01300,chase,0,96.0,1.952,1,222,59
e5de8a7b-b080-44aa-9279-c42f7862e210,chase,0,90.0,1.793,1,222,60
64673dfa-0706-4fb2-a297-b988740292d5,chase,90,84.0,1.973,1,222,61
68be0cf8-ea92-4566-b84a-cbd60b2e5547,wander,180,56.0,2.073,1,222,62
2d4bdbd9-d1de-4787-8cc8-a317b9d4c68d,wander,180,0.0,2.652,0,222,63
981221b7-2aa0-476c-b101-390d6cc3dd1a,chase,120,73.0,1.913,1,222,64
2383c97c-89dc-495f-8ec8-8a517a45ca6c,chase,90,72.0,1.902,1,222,65
dad72227-6303-403d-8c8f-61b79d192ff4,chase,120,0.0,1.955,1,222,66
977e0607-6332-4db4-ab12-9d17dce4dc85,wander,180,31.0,1.929,0,222,67
116d4cf9-2d22-4e06-8fbf-248789f8212c,chase,150,1.0,2.742,0,222,68
f9e978d5-51e5-401a-8c9a-df747f2dec53,chase,0,100.0,2.48,1,222,69
6d712780-43b4-49f9-9bb8-c6ef920b78bd,chase,0,98.0,1.84,1,222,70
a680f7c6-9605-4481-a14d-c24d8d7b99bc,chase,30,99.0,1.823,1,222,71
c8a1258a-1920-42bf-98e8-6c2dcc03a258,chase,60,100.0,1.955,1,222,72
67a027b6-67e1-4784-aaad-ab48b5731cca,chase,0,99.0,1.637,1,222,73
c51864d5-4cd9-435e-8d8b-210c8454248a,chase,0,99.0,2.025,1,222,74
5ce017a9-f595-403c-a861-53e49993751a,wander,180,9.0,3.095,0,222,75
86edbcec-0b0a-41d9-9c9e-d5df43732237,chase,30,100.0,2.052,1,222,76
8af66fd7-6ab4-47a3-a88c-02fd34772ac6,wander,180,22.0,1.648,1,222,77
4fb58057-109b-400f-8b1d-d9afc6926a6c,chase,60,88.0,1.697,1,222,78
0ea90462-f5e2-47a7-bd4b-2ea1c0bb7293,chase,60,96.0,1.881,1,222,79
0ea38b84-b2dc-4072-b4b8-3dce5f53debc,chase,120,75.0,1.763,1,222,80
2667cf6b-8ba8-4919-a871-ecd9b2852bce,chase,120,35.0,3.191,1,222,81
d145a05f-e3c9-4244-b83b-2792e29b0493,chase,150,71.0,2.037,1,222,82
7da2bf99-2525-456c-889d-33e4d57cefac,chase,150,67.0,2.185,1,222,83
a680f7c6-9605-4481-a14d-c24d8d7b99bc,chase,30,78.0,3.835,1,129,0
4fb58057-109b-400f-8b1d-d9afc6926a6c,chase,60,76.0,3.548,1,129,1
12ba80f8-98cb-4c76-836d-72c2d6364a8e,chase,120,47.0,4.088,1,129,2
bee25e5c-74fd-4f63-b2e7-43b8af6bb08c,chase,90,62.0,3.185,1,129,3
6d712780-43b4-49f9-9bb8-c6ef920b78bd,chase,0,70.0,3.81,1,129,4
599df54c-434d-46db-a56a-5698a4ae9a9e,chase,150,31.0,3.661,0,129,5
64673dfa-0706-4fb2-a297-b988740292d5,chase,90,46.0,5.071,1,129,6
2d4bdbd9-d1de-4787-8cc8-a317b9d4c68d,wander,180,35.0,3.555,1,129,7
21ca5095-0a92-499b-9d26-d8a5f4a0841a,wander,180,35.0,4.472,0,129,8
92158ea9-b156-4e87-a2e3-ff0845033b9c,chase,150,22.0,3.85,1,129,9
84e883bc-3ec7-4bef-bdb3-2016001d7f47,chase,120,39.0,3.042,1,129,10
dad72227-6303-403d-8c8f-61b79d192ff4,chase,120,44.0,4.273,0,129,11
6164475a-8bff-4ee0-8fef-043a34cd7da5,chase,120,36.0,3.567,1,129,12
ebb2b54b-03ef-482e-98e6-c30b11e93f54,chase,90,64.0,2.946,1,129,13
4f1db8f7-63a7-4e49-b31b-12adcf107bf0,chase,150,38.0,4.386,1,129,14
977e0607-6332-4db4-ab12-9d17dce4dc85,wander,180,34.0,3.748,1,129,15
c4c5c990-2898-4b30-8454-9be48985cf75,chase,150,41.0,3.478,0,129,16
d145a05f-e3c9-4244-b83b-2792e29b0493,chase,150,54.0,3.612,1,129,17
65c87d60-ca32-4b8c-862c-41cd8e585b4b,chase,0,79.0,3.489,1,129,18
496c052f-24cd-4731-b1a3-dc6a8076719b,chase,120,53.0,3.683,1,129,19
f1ea4cb7-98d0-45a4-8269-16f1aebf05e3,chase,30,71.0,3.153,1,129,20
8af66fd7-6ab4-47a3-a88c-02fd34772ac6,wander,180,38.0,3.637,1,129,21
81f068e9-cbbc-4d88-8e31-206979547986,chase,120,64.0,3.264,1,129,22
a763322d-d8ef-4998-b3d2-05767e0273f2,chase,150,26.0,3.518,1,129,23
884bc951-67a6-42bd-8ea7-ece0c8745d3f,chase,0,83.0,2.901,1,129,24
7f76ce9f-1463-4e78-87a4-6a54cd80ee88,chase,90,58.0,3.387,1,129,25
4b3782e4-fafc-4dd1-96aa-9b339f19d004,chase,0,40.0,2.714,1,129,26
5dbc75c6-6973-4ae1-aaf0-d3b84feb4723,wander,180,33.0,3.611,1,129,27
f8c01499-8009-448b-9476-a38a582d3db6,chase,150,41.0,3.299,1,129,28
c8a1258a-1920-42bf-98e8-6c2dcc03a258,chase,60,64.0,3.257,1,129,29
b75e278a-0fbd-474b-92b0-7038934dda4b,chase,30,72.0,3.115,1,129,30
c1b6f573-136b-414a-a6ec-8628f66a51e1,chase,150,27.0,3.711,1,129,31
3dbf8de7-1bf7-4a43-a5e3-4366a94ea690,chase,90,63.0,3.219,1,129,32
86edbcec-0b0a-41d9-9c9e-d5df43732237,chase,30,77.0,3.169,1,129,33
981221b7-2aa0-476c-b101-390d6cc3dd1a,chase,120,58.0,3.616,1,129,34
5ce017a9-f595-403c-a861-53e49993751a,wander,180,52.0,4.591,0,129,35
1a3da098-0a3a-43af-af4a-a9fad5adcce6,chase,90,66.0,3.081,1,129,36
b70d0259-cb69-48f1-b026-46452cf6e70f,wander,180,57.0,3.454,0,129,37
dbce0a8f-ba45-4265-a60e-b98acd0e16d0,chase,150,43.0,3.817,1,129,38
f4c4b671-d1de-4b8d-adad-ab6e05900d81,chase,90,58.0,3.178,1,129,39
cd9d4d31-b57e-4c3d-86c6-267ce9eec948,chase,60,78.0,3.084,1,129,40
bc18f2bb-8e1a-4fcf-bc63-d56da485f828,chase,90,66.0,3.035,1,129,41
4e913eda-699f-4aa1-831d-c82fb169914c,chase,60,70.0,3.679,1,129,42
68be0cf8-ea92-4566-b84a-cbd60b2e5547,wander,180,53.0,3.564,0,129,43
58ff2cb6-e661-4be4-945c-d3f9ab5180c6,chase,150,56.0,3.488,1,129,44
42d1593c-1903-4c06-8304-6d2b29c5be37,chase,30,71.0,3.211,1,129,45
e5de8a7b-b080-44aa-9279-c42f7862e210,chase,0,73.0,3.337,1,129,46
0ea90462-f5e2-47a7-bd4b-2ea1c0bb7293,chase,60,61.0,3.118,1,129,47
7da2bf99-2525-456c-889d-33e4d57cefac,chase,150,43.0,3.197,0,129,48
068dfd59-6b9c-4eca-b60c-7eb73cc72305,chase,0,72.0,2.79,1,129,49
cf6ad30a-98ab-45d8-98d9-92352096afee,chase,30,71.0,2.646,1,129,50
9d561139-a905-406b-83a0-38ea62293ed9,chase,90,58.0,3.791,1,129,51
2b3090fe-a6e0-4e32-8e43-767b0d526444,chase,60,70.0,2.913,1,129,52
738dba2c-d7cb-488e-b971-0dc50c74bf4b,chase,30,73.0,3.385,1,129,53
f9e978d5-51e5-401a-8c9a-df747f2dec53,chase,0,70.0,2.742,1,129,54
c5cf3c4d-84e7-4c90-a33b-9d7db4b01300,chase,0,79.0,3.26,1,129,55
c40a4196-baf2-4992-afe5-aeca6b69a170,chase,30,70.0,2.885,1,129,56
46975d67-ead1-4d29-93d2-9fbd40dad49d,wander,180,22.0,3.432,0,129,57
411043c2-72c5-48c5-8cb7-febcebc40f98,chase,30,70.0,2.609,1,129,58
1c695094-312c-450a-ac7f-f994dabb958d,wander,180,39.0,3.868,1,129,59
0ea38b84-b2dc-4072-b4b8-3dce5f53debc,chase,120,38.0,3.412,1,129,60
1d35e834-4947-46b2-9cbd-816ea4587c6f,wander,180,30.0,3.451,1,129,61
24724e9a-8a79-4ab8-a58f-e007c5d00714,chase,120,45.0,3.252,1,129,62
c798455f-e351-48ee-b7cd-d27d6bb7ad61,chase,60,67.0,2.703,1,129,63
7d329546-ecf4-4612-8f00-c127c77d5d6c,chase,60,76.0,3.241,1,129,64
18c4991b-f4d6-47a6-b29a-81f425410c0e,chase,120,56.0,4.131,0,129,65
b3b1ce6f-50f4-4922-80d2-b53f06819db2,chase,120,59.0,5.361,1,129,66
67a027b6-67e1-4784-aaad-ab48b5731cca,chase,0,75.0,3.542,1,129,67
c51864d5-4cd9-435e-8d8b-210c8454248a,chase,0,72.0,2.821,1,129,68
ae7d3eb8-dc5d-447b-b5c5-9b30fb3b8314,chase,60,69.0,3.085,1,129,69
398e7f33-6d63-47e3-9a9a-74e474cd8a1d,chase,30,67.0,3.38,1,129,70
7ef8daac-db75-4ee8-a071-f88ace7368fa,chase,60,69.0,4.985,1,129,71
64e6dcf6-35e5-46ef-8d1c-80a6786a24f6,chase,90,60.0,2.834,1,129,72
2667cf6b-8ba8-4919-a871-ecd9b2852bce,chase,120,32.0,3.201,0,129,73
2383c97c-89dc-495f-8ec8-8a517a45ca6c,chase,90,60.0,3.988,1,129,74
2437aa32-b54d-48e7-b20d-fafb63156eb0,chase,0,70.0,3.333,1,129,75
2cf66fb7-ab1d-466b-be40-d9f856dc213f,wander,180,40.0,3.715,1,129,76
cd35aaa0-2e49-4c68-9db3-f26fb9be29c5,chase,0,78.0,3.319,1,129,77
45126725-a7eb-4318-86c4-1af84082e8b8,chase,30,79.0,2.75,1,129,78
93865245-a3be-41b2-a17e-29b2b6043800,chase,90,34.0,3.931,1,129,79
4fb304a5-e4d9-4469-a34d-360a50cb0d09,chase,60,45.0,3.375,1,129,80
e4dd3e31-b4f2-4f66-9e70-0665b6bcd089,chase,30,74.0,3.31,1,129,81
184c8795-2f00-4c7d-bc10-bd7de3066a20,chase,60,63.0,3.947,1,129,82
116d4cf9-2d22-4e06-8fbf-248789f8212c,chase,150,29.0,3.795,0,129,83
2d4bdbd9-d1de-4787-8cc8-a317b9d4c68d,wander,180,57.0,3.101,1,28,0
c4c5c990-2898-4b30-8454-9be48985cf75,chase,150,22.0,2.323,0,28,1
0ea38b84-b2dc-4072-b4b8-3dce5f53debc,chase,120,75.0,2.13,1,28,2
6d712780-43b4-49f9-9bb8-c6ef920b78bd,chase,0,98.0,2.498,1,28,3
f9e978d5-51e5-401a-8c9a-df747f2dec53,chase,0,92.0,3.148,1,28,4
c8a1258a-1920-42bf-98e8-6c2dcc03a258,chase,60,93.0,2.037,1,28,5
c51864d5-4cd9-435e-8d8b-210c8454248a,chase,0,93.0,1.604,1,28,6
81f068e9-cbbc-4d88-8e31-206979547986,chase,120,93.0,2.089,1,28,7
cf6ad30a-98ab-45d8-98d9-92352096afee,chase,30,89.0,1.922,1,28,8
e4dd3e31-b4f2-4f66-9e70-0665b6bcd089,chase,30,93.0,5.481,1,28,9
1d35e834-4947-46b2-9cbd-816ea4587c6f,wander,180,,10.015,0,28,10
86edbcec-0b0a-41d9-9c9e-d5df43732237,chase,30,90.0,2.099,1,28,11
1c695094-312c-450a-ac7f-f994dabb958d,wander,180,20.0,1.801,0,28,12
496c052f-24cd-4731-b1a3-dc6a8076719b,chase,120,63.0,2.603,1,28,13
981221b7-2aa0-476c-b101-390d6cc3dd1a,chase,120,30.0,2.666,1,28,14
068dfd59-6b9c-4eca-b60c-7eb73cc72305,chase,0,90.0,1.347,1,28,15
116d4cf9-2d22-4e06-8fbf-248789f8212c,chase,150,12.0,1.959,1,28,16
58ff2cb6-e661-4be4-945c-d3f9ab5180c6,chase,150,74.0,1.86,1,28,17
84e883bc-3ec7-4bef-bdb3-2016001d7f47,chase,120,20.0,3.035,1,28,18
c5cf3c4d-84e7-4c90-a33b-9d7db4b01300,chase,0,82.0,3.146,1,28,19
a763322d-d8ef-4998-b3d2-05767e0273f2,chase,150,27.0,2.72,0,28,20
4f1db8f7-63a7-4e49-b31b-12adcf107bf0,chase,150,24.0,1.985,1,28,21
411043c2-72c5-48c5-8cb7-febcebc40f98,chase,30,88.0,1.694,1,28,22
c1b6f573-136b-414a-a6ec-8628f66a51e1,chase,150,21.0,2.57,0,28,23
5dbc75c6-6973-4ae1-aaf0-d3b84feb4723,wander,180,26.0,2.013,0,28,24
bc18f2bb-8e1a-4fcf-bc63-d56da485f828,chase,90,88.0,1.434,1,28,25
64e6dcf6-35e5-46ef-8d1c-80a6786a24f6,chase,90,86.0,2.709,1,28,26
2b3090fe-a6e0-4e32-8e43-767b0d526444,chase,60,89.0,1.653,1,28,27
7da2bf99-2525-456c-889d-33e4d57cefac,chase,150,28.0,2.538,0,28,28
884bc951-67a6-42bd-8ea7-ece0c8745d3f,chase,0,98.0,1.349,1,28,29
2cf66fb7-ab1d-466b-be40-d9f856dc213f,wander,180,64.0,2.641,1,28,30
ebb2b54b-03ef-482e-98e6-c30b11e93f54,chase,90,90.0,1.888,1,28,31
2383c97c-89dc-495f-8ec8-8a517a45ca6c,chase,90,83.0,1.643,1,28,32
68be0cf8-ea92-4566-b84a-cbd60b2e5547,wander,180,21.0,3.75,0,28,33
3dbf8de7-1bf7-4a43-a5e3-4366a94ea690,chase,90,82.0,1.379,1,28,34
4e913eda-699f-4aa1-831d-c82fb169914c,chase,60,90.0,2.988,1,28,35
f8c01499-8009-448b-9476-a38a582d3db6,chase,150,25.0,3.732,1,28,36
2437aa32-b54d-48e7-b20d-fafb63156eb0,chase,0,88.0,2.081,1,28,37
ae7d3eb8-dc5d-447b-b5c5-9b30fb3b8314,chase,60,74.0,2.966,0,28,38
46975d67-ead1-4d29-93d2-9fbd40dad49d,wander,180,6.0,2.0,1,28,39
f1ea4cb7-98d0-45a4-8269-16f1aebf05e3,chase,30,88.0,1.582,1,28,40
a680f7c6-9605-4481-a14d-c24d8d7b99bc,chase,30,86.0,1.106,1,28,41
4fb58057-109b-400f-8b1d-d9afc6926a6c,chase,60,83.0,4.641,0,28,42
93865245-a3be-41b2-a17e-29b2b6043800,chase,90,85.0,1.897,1,28,43
e5de8a7b-b080-44aa-9279-c42f7862e210,chase,0,92.0,1.489,1,28,44
b75e278a-0fbd-474b-92b0-7038934dda4b,chase,30,92.0,1.804,1,28,45
64673dfa-0706-4fb2-a297-b988740292d5,chase,90,88.0,1.705,1,28,46
f4c4b671-d1de-4b8d-adad-ab6e05900d81,chase,90,25.0,2.991,1,28,47
4fb304a5-e4d9-4469-a34d-360a50cb0d09,chase,60,89.0,1.579,1,28,48
4b3782e4-fafc-4dd1-96aa-9b339f19d004,chase,0,92.0,1.6,1,28,49
12ba80f8-98cb-4c76-836d-72c2d6364a8e,chase,120,31.0,3.179,0,28,50
c798455f-e351-48ee-b7cd-d27d6bb7ad61,chase,60,81.0,2.691,1,28,51
977e0607-6332-4db4-ab12-9d17dce4dc85,wander,180,8.0,1.877,1,28,52
738dba2c-d7cb-488e-b971-0dc50c74bf4b,chase,30,88.0,2.255,1,28,53
d145a05f-e3c9-4244-b83b-2792e29b0493,chase,150,67.0,3.276,1,28,54
8af66fd7-6ab4-47a3-a88c-02fd34772ac6,wander,180,15.0,1.582,0,28,55
2667cf6b-8ba8-4919-a871-ecd9b2852bce,chase,120,21.0,1.943,1,28,56
dbce0a8f-ba45-4265-a60e-b98acd0e16d0,chase,150,60.0,2.702,0,28,57
b3b1ce6f-50f4-4922-80d2-b53f06819db2,chase,120,94.0,1.504,1,28,58
b70d0259-cb69-48f1-b026-46452cf6e70f,wander,180,17.0,3.08,1,28,59
42d1593c-1903-4c06-8304-6d2b29c5be37,chase,30,86.0,1.495,1,28,60
7ef8daac-db75-4ee8-a071-f88ace7368fa,chase,60,82.0,2.448,1,28,61
7f76ce9f-1463-4e78-87a4-6a54cd80ee88,chase,90,71.0,2.744,1,28,62
398e7f33-6d63-47e3-9a9a-74e474cd8a1d,chase,30,92.0,1.942,1,28,63
6164475a-8bff-4ee0-8fef-043a34cd7da5,chase,120,15.0,2.391,1,28,64
9d561139-a905-406b-83a0-38ea62293ed9,chase,90,88.0,1.756,1,28,65
21ca5095-0a92-499b-9d26-d8a5f4a0841a,wander,180,15.0,2.106,0,28,66
7d329546-ecf4-4612-8f00-c127c77d5d6c,chase,60,83.0,1.774,1,28,67
18c4991b-f4d6-47a6-b29a-81f425410c0e,chase,120,13.0,1.807,1,28,68
67a027b6-67e1-4784-aaad-ab48b5731cca,chase,0,88.0,1.599,1,28,69
0ea90462-f5e2-47a7-bd4b-2ea1c0bb7293,chase,60,86.0,1.929,0,28,70
cd35aaa0-2e49-4c68-9db3-f26fb9be29c5,chase,0,94.0,1.324,1,28,71
45126725-a7eb-4318-86c4-1af84082e8b8,chase,30,87.0,1.539,1,28,72
dad72227-6303-403d-8c8f-61b79d192ff4,chase,120,21.0,2.725,0,28,73
5ce017a9-f595-403c-a861-53e49993751a,wander,180,9.0,2.102,1,28,74
24724e9a-8a79-4ab8-a58f-e007c5d00714,chase,120,25.0,2.726,0,28,75
65c87d60-ca32-4b8c-862c-41cd8e585b4b,chase,0,88.0,2.312,1,28,76
1a3da098-0a3a-43af-af4a-a9fad5adcce6,chase,90,91.0,1.646,1,28,77
184c8795-2f00-4c7d-bc10-bd7de3066a20,chase,60,88.0,1.211,1,28,78
bee25e5c-74fd-4f63-b2e7-43b8af6bb08c,chase,90,86.0,1.811,1,28,79
c40a4196-baf2-4992-afe5-aeca6b69a170,chase,30,87.0,1.732,1,28,80
599df54c-434d-46db-a56a-5698a4ae9a9e,chase,150,21.0,1.827,1,28,81
92158ea9-b156-4e87-a2e3-ff0845033b9c,chase,150,2.0,2.573,1,28,82
cd9d4d31-b57e-4c3d-86c6-267ce9eec948,chase,60,92.0,1.929,1,28,83
7f76ce9f-1463-4e78-87a4-6a54cd80ee88,chase,90,77.0,3.624,1,69,0
f4c4b671-d1de-4b8d-adad-ab6e05900d81,chase,90,73.0,3.629,1,69,1
6164475a-8bff-4ee0-8fef-043a34cd7da5,chase,120,26.0,2.667,0,69,2
24724e9a-8a79-4ab8-a58f-e007c5d00714,chase,120,54.0,3.482,1,69,3
dbce0a8f-ba45-4265-a60e-b98acd0e16d0,chase,150,53.0,5.313,1,69,4
977e0607-6332-4db4-ab12-9d17dce4dc85,wander,180,40.0,2.676,1,69,5
45126725-a7eb-4318-86c4-1af84082e8b8,chase,30,98.0,2.174,1,69,6
64e6dcf6-35e5-46ef-8d1c-80a6786a24f6,chase,90,98.0,2.931,1,69,7
5dbc75c6-6973-4ae1-aaf0-d3b84feb4723,wander,180,60.0,2.999,1,69,8
84e883bc-3ec7-4bef-bdb3-2016001d7f47,chase,120,41.0,2.52,1,69,9
46975d67-ead1-4d29-93d2-9fbd40dad49d,wander,180,3.0,3.209,0,69,10
884bc951-67a6-42bd-8ea7-ece0c8745d3f,chase,0,99.0,2.165,1,69,11
1c695094-312c-450a-ac7f-f994dabb958d,wander,180,46.0,3.173,1,69,12
2437aa32-b54d-48e7-b20d-fafb63156eb0,chase,0,100.0,2.228,1,69,13
981221b7-2aa0-476c-b101-390d6cc3dd1a,chase,120,57.0,2.586,1,69,14
2cf66fb7-ab1d-466b-be40-d9f856dc213f,wander,180,52.0,2.736,1,69,15
2d4bdbd9-d1de-4787-8cc8-a317b9d4c68d,wander,180,27.0,2.913,0,69,16
b75e278a-0fbd-474b-92b0-7038934dda4b,chase,30,100.0,2.115,1,69,17
2383c97c-89dc-495f-8ec8-8a517a45ca6c,chase,90,89.0,2.201,1,69,18
81f068e9-cbbc-4d88-8e31-206979547986,chase,120,89.0,3.067,1,69,19
f8c01499-8009-448b-9476-a38a582d3db6,chase,150,39.0,3.064,0,69,20
8af66fd7-6ab4-47a3-a88c-02fd34772ac6,wander,180,59.0,2.705,1,69,21
64673dfa-0706-4fb2-a297-b988740292d5,chase,90,67.0,2.358,1,69,22
7d329546-ecf4-4612-8f00-c127c77d5d6c,chase,60,98.0,2.375,1,69,23
4e913eda-699f-4aa1-831d-c82fb169914c,chase,60,97.0,1.906,1,69,24
68be0cf8-ea92-4566-b84a-cbd60b2e5547,wander,180,65.0,3.979,0,69,25
bee25e5c-74fd-4f63-b2e7-43b8af6bb08c,chase,90,98.0,2.296,1,69,26
068dfd59-6b9c-4eca-b60c-7eb73cc72305,chase,0,97.0,2.022,1,69,27
86edbcec-0b0a-41d9-9c9e-d5df43732237,chase,30,99.0,2.629,1,69,28
496c052f-24cd-4731-b1a3-dc6a8076719b,chase,120,56.0,8.385,0,69,29
c5cf3c4d-84e7-4c90-a33b-9d7db4b01300,chase,0,99.0,2.394,1,69,30
7da2bf99-2525-456c-889d-33e4d57cefac,chase,150,30.0,3.477,0,69,31
c4c5c990-2898-4b30-8454-9be48985cf75,chase,150,27.0,2.758,0,69,32
f9e978d5-51e5-401a-8c9a-df747f2dec53,chase,0,98.0,2.504,1,69,33
c1b6f573-136b-414a-a6ec-8628f66a51e1,chase,150,1.0,3.845,1,69,34
92158ea9-b156-4e87-a2e3-ff0845033b9c,chase,150,2.0,2.064,1,69,35
cd35aaa0-2e49-4c68-9db3-f26fb9be29c5,chase,0,99.0,2.002,1,69,36
c51864d5-4cd9-435e-8d8b-210c8454248a,chase,0,98.0,2.447,1,69,37
93865245-a3be-41b2-a17e-29b2b6043800,chase,90,57.0,5.251,0,69,38
12ba80f8-98cb-4c76-836d-72c2d6364a8e,chase,120,56.0,2.369,1,69,39
c798455f-e351-48ee-b7cd-d27d6bb7ad61,chase,60,96.0,2.266,1,69,40
cd9d4d31-b57e-4c3d-86c6-267ce9eec948,chase,60,98.0,2.013,1,69,41
3dbf8de7-1bf7-4a43-a5e3-4366a94ea690,chase,90,81.0,2.312,1,69,42
b70d0259-cb69-48f1-b026-46452cf6e70f,wander,180,19.0,3.821,0,69,43
1d35e834-4947-46b2-9cbd-816ea4587c6f,wander,180,20.0,5.45,1,69,44
f1ea4cb7-98d0-45a4-8269-16f1aebf05e3,chase,30,96.0,2.27,1,69,45
a680f7c6-9605-4481-a14d-c24d8d7b99bc,chase,30,95.0,3.255,1,69,46
18c4991b-f4d6-47a6-b29a-81f425410c0e,chase,120,27.0,2.541,1,69,47
4b3782e4-fafc-4dd1-96aa-9b339f19d004,chase,0,99.0,2.445,1,69,48
e4dd3e31-b4f2-4f66-9e70-0665b6bcd089,chase,30,99.0,1.966,1,69,49
dad72227-6303-403d-8c8f-61b79d192ff4,chase,120,24.0,3.356,0,69,50
67a027b6-67e1-4784-aaad-ab48b5731cca,chase,0,99.0,2.145,1,69,51
e5de8a7b-b080-44aa-9279-c42f7862e210,chase,0,100.0,2.113,1,69,52
2b3090fe-a6e0-4e32-8e43-767b0d526444,chase,60,100.0,2.157,1,69,53
738dba2c-d7cb-488e-b971-0dc50c74bf4b,chase,30,100.0,2.19,1,69,54
9d561139-a905-406b-83a0-38ea62293ed9,chase,90,83.0,3.728,1,69,55
bc18f2bb-8e1a-4fcf-bc63-d56da485f828,chase,90,67.0,2.202,1,69,56
ae7d3eb8-dc5d-447b-b5c5-9b30fb3b8314,chase,60,87.0,2.206,1,69,57
c40a4196-baf2-4992-afe5-aeca6b69a170,chase,30,93.0,2.946,1,69,58
58ff2cb6-e661-4be4-945c-d3f9ab5180c6,chase,150,34.0,2.852,0,69,59
4fb58057-109b-400f-8b1d-d9afc6926a6c,chase,60,83.0,4.042,0,69,60
184c8795-2f00-4c7d-bc10-bd7de3066a20,chase,60,87.0,2.144,1,69,61
398e7f33-6d63-47e3-9a9a-74e474cd8a1d,chase,30,91.0,3.208,1,69,62
21ca5095-0a92-499b-9d26-d8a5f4a0841a,wander,180,24.0,2.575,0,69,63
0ea90462-f5e2-47a7-bd4b-2ea1c0bb7293,chase,60,82.0,3.104,1,69,64
7ef8daac-db75-4ee8-a071-f88ace7368fa,chase,60,84.0,2.148,1,69,65
b3b1ce6f-50f4-4922-80d2-b53f06819db2,chase,120,70.0,2.937,1,69,66
42d1593c-1903-4c06-8304-6d2b29c5be37,chase,30,91.0,2.521,1,69,67
cf6ad30a-98ab-45d8-98d9-92352096afee,chase,30,89.0,2.42,1,69,68
65c87d60-ca32-4b8c-862c-41cd8e585b4b,chase,0,96.0,3.368,1,69,69
4f1db8f7-63a7-4e49-b31b-12adcf107bf0,chase,150,11.0,3.008,0,69,70
d145a05f-e3c9-4244-b83b-2792e29b0493,chase,150,15.0,3.934,1,69,71
a763322d-d8ef-4998-b3d2-05767e0273f2,chase,150,15.0,2.111,1,69,72
5ce017a9-f595-403c-a861-53e49993751a,wander,180,18.0,2.665,1,69,73
116d4cf9-2d22-4e06-8fbf-248789f8212c,chase,150,17.0,3.074,1,69,74
6d712780-43b4-49f9-9bb8-c6ef920b78bd,chase,0,94.0,2.235,1,69,75
4fb304a5-e4d9-4469-a34d-360a50cb0d09,chase,60,97.0,3.292,1,69,76
1a3da098-0a3a-43af-af4a-a9fad5adcce6,chase,90,94.0,2.633,1,69,77
599df54c-434d-46db-a56a-5698a4ae9a9e,chase,150,6.0,2.963,0,69,78
c8a1258a-1920-42bf-98e8-6c2dcc03a258,chase,60,92.0,2.472,1,69,79
411043c2-72c5-48c5-8cb7-febcebc40f98,chase,30,94.0,2.835,1,69,80
0ea38b84-b2dc-4072-b4b8-3dce5f53debc,chase,120,58.0,4.072,1,69,81
ebb2b54b-03ef-482e-98e6-c30b11e93f54,chase,90,89.0,2.514,1,69,82
2667cf6b-8ba8-4919-a871-ecd9b2852bce,chase,120,46.0,5.462,1,69,83
c51864d5-4cd9-435e-8d8b-210c8454248a,chase,0,93.0,4.274,1,83,0
4e913eda-699f-4aa1-831d-c82fb169914c,chase,60,74.0,4.108,1,83,1
4fb58057-109b-400f-8b1d-d9afc6926a6c,chase,60,70.0,4.073,1,83,2
1c695094-312c-450a-ac7f-f994dabb958d,wander,180,5.0,4.642,1,83,3
ae7d3eb8-dc5d-447b-b5c5-9b30fb3b8314,chase,60,65.0,4.511,1,83,4
45126725-a7eb-4318-86c4-1af84082e8b8,chase,30,90.0,4.226,1,83,5
4f1db8f7-63a7-4e49-b31b-12adcf107bf0,chase,150,6.0,6.331,0,83,6
f9e978d5-51e5-401a-8c9a-df747f2dec53,chase,0,94.0,3.955,1,83,7
c4c5c990-2898-4b30-8454-9be48985cf75,chase,150,10.0,4.44,1,83,8
86edbcec-0b0a-41d9-9c9e-d5df43732237,chase,30,91.0,3.775,1,83,9
67a027b6-67e1-4784-aaad-ab48b5731cca,chase,0,96.0,3.942,1,83,10
599df54c-434d-46db-a56a-5698a4ae9a9e,chase,150,3.0,4.143,0,83,11
64673dfa-0706-4fb2-a297-b988740292d5,chase,90,58.0,4.109,1,83,12
5ce017a9-f595-403c-a861-53e49993751a,wander,180,13.0,4.31,1,83,13
c8a1258a-1920-42bf-98e8-6c2dcc03a258,chase,60,82.0,5.091,1,83,14
6d712780-43b4-49f9-9bb8-c6ef920b78bd,chase,0,95.0,3.876,1,83,15
f1ea4cb7-98d0-45a4-8269-16f1aebf05e3,chase,30,97.0,4.241,1,83,16
4b3782e4-fafc-4dd1-96aa-9b339f19d004,chase,0,87.0,4.295,1,83,17
496c052f-24cd-4731-b1a3-dc6a8076719b,chase,120,24.0,4.857,1,83,18
24724e9a-8a79-4ab8-a58f-e007c5d00714,chase,120,44.0,4.075,1,83,19
738dba2c-d7cb-488e-b971-0dc50c74bf4b,chase,30,93.0,3.875,1,83,20
981221b7-2aa0-476c-b101-390d6cc3dd1a,chase,120,8.0,6.274,0,83,21
c40a4196-baf2-4992-afe5-aeca6b69a170,chase,30,84.0,4.609,1,83,22
68be0cf8-ea92-4566-b84a-cbd60b2e5547,wander,180,12.0,4.009,1,83,23
93865245-a3be-41b2-a17e-29b2b6043800,chase,90,17.0,4.262,1,83,24
1d35e834-4947-46b2-9cbd-816ea4587c6f,wander,180,3.0,4.475,1,83,25
81f068e9-cbbc-4d88-8e31-206979547986,chase,120,53.0,4.489,1,83,26
c798455f-e351-48ee-b7cd-d27d6bb7ad61,chase,60,82.0,4.153,1,83,27
7f76ce9f-1463-4e78-87a4-6a54cd80ee88,chase,90,56.0,3.646,1,83,28
bc18f2bb-8e1a-4fcf-bc63-d56da485f828,chase,90,68.0,4.028,1,83,29
977e0607-6332-4db4-ab12-9d17dce4dc85,wander,180,27.0,3.925,1,83,30
dad72227-6303-403d-8c8f-61b79d192ff4,chase,120,4.0,4.158,1,83,31
e4dd3e31-b4f2-4f66-9e70-0665b6bcd089,chase,30,91.0,3.726,1,83,32
bee25e5c-74fd-4f63-b2e7-43b8af6bb08c,chase,90,74.0,3.844,1,83,33
2b3090fe-a6e0-4e32-8e43-767b0d526444,chase,60,96.0,3.779,1,83,34
58ff2cb6-e661-4be4-945c-d3f9ab5180c6,chase,150,6.0,4.361,1,83,35
c1b6f573-136b-414a-a6ec-8628f66a51e1,chase,150,0.0,3.641,1,83,36
18c4991b-f4d6-47a6-b29a-81f425410c0e,chase,120,9.0,3.806,1,83,37
b75e278a-0fbd-474b-92b0-7038934dda4b,chase,30,100.0,3.667,1,83,38
cd9d4d31-b57e-4c3d-86c6-267ce9eec948,chase,60,100.0,3.829,1,83,39
398e7f33-6d63-47e3-9a9a-74e474cd8a1d,chase,30,97.0,3.61,1,83,40
2437aa32-b54d-48e7-b20d-fafb63156eb0,chase,0,100.0,3.227,1,83,41
f4c4b671-d1de-4b8d-adad-ab6e05900d81,chase,90,6.0,4.109,1,83,42
ebb2b54b-03ef-482e-98e6-c30b11e93f54,chase,90,93.0,4.525,1,83,43
65c87d60-ca32-4b8c-862c-41cd8e585b4b,chase,0,100.0,3.228,1,83,44
7da2bf99-2525-456c-889d-33e4d57cefac,chase,150,5.0,4.207,1,83,45
7d329546-ecf4-4612-8f00-c127c77d5d6c,chase,60,95.0,4.392,1,83,46
f8c01499-8009-448b-9476-a38a582d3db6,chase,150,2.0,3.991,1,83,47
3dbf8de7-1bf7-4a43-a5e3-4366a94ea690,chase,90,59.0,4.058,1,83,48
a763322d-d8ef-4998-b3d2-05767e0273f2,chase,150,2.0,4.342,1,83,49
dbce0a8f-ba45-4265-a60e-b98acd0e16d0,chase,150,4.0,3.98,1,83,50
21ca5095-0a92-499b-9d26-d8a5f4a0841a,wander,180,4.0,3.608,0,83,51
cf6ad30a-98ab-45d8-98d9-92352096afee,chase,30,100.0,3.529,1,83,52
42d1593c-1903-4c06-8304-6d2b29c5be37,chase,30,100.0,3.377,1,83,53
1a3da098-0a3a-43af-af4a-a9fad5adcce6,chase,90,63.0,4.274,1,83,54
e5de8a7b-b080-44aa-9279-c42f7862e210,chase,0,100.0,3.107,1,83,55
184c8795-2f00-4c7d-bc10-bd7de3066a20,chase,60,88.0,3.725,1,83,56
b3b1ce6f-50f4-4922-80d2-b53f06819db2,chase,120,89.0,3.958,1,83,57
d145a05f-e3c9-4244-b83b-2792e29b0493,chase,150,3.0,3.824,1,83,58
0ea90462-f5e2-47a7-bd4b-2ea1c0bb7293,chase,60,90.0,4.577,1,83,59
068dfd59-6b9c-4eca-b60c-7eb73cc72305,chase,0,99.0,3.626,1,83,60
884bc951-67a6-42bd-8ea7-ece0c8745d3f,chase,0,100.0,3.399,1,83,61
116d4cf9-2d22-4e06-8fbf-248789f8212c,chase,150,1.0,4.707,1,83,62
2667cf6b-8ba8-4919-a871-ecd9b2852bce,chase,120,3.0,3.96,1,83,63
2cf66fb7-ab1d-466b-be40-d9f856dc213f,wander,180,2.0,4.329,1,83,64
6164475a-8bff-4ee0-8fef-043a34cd7da5,chase,120,35.0,4.572,1,83,65
0ea38b84-b2dc-4072-b4b8-3dce5f53debc,chase,120,45.0,3.694,1,83,66
a680f7c6-9605-4481-a14d-c24d8d7b99bc,chase,30,97.0,4.092,1,83,67
46975d67-ead1-4d29-93d2-9fbd40dad49d,wander,180,0.0,3.642,0,83,68
5dbc75c6-6973-4ae1-aaf0-d3b84feb4723,wander,180,4.0,4.292,1,83,69
411043c2-72c5-48c5-8cb7-febcebc40f98,chase,30,97.0,3.612,1,83,70
84e883bc-3ec7-4bef-bdb3-2016001d7f47,chase,120,0.0,3.776,1,83,71
92158ea9-b156-4e87-a2e3-ff0845033b9c,chase,150,0.0,3.979,1,83,72
64e6dcf6-35e5-46ef-8d1c-80a6786a24f6,chase,90,94.0,3.678,1,83,73
2383c97c-89dc-495f-8ec8-8a517a45ca6c,chase,90,90.0,3.825,1,83,74
2d4bdbd9-d1de-4787-8cc8-a317b9d4c68d,wander,180,5.0,4.075,1,83,75
c5cf3c4d-84e7-4c90-a33b-9d7db4b01300,chase,0,91.0,3.825,1,83,76
12ba80f8-98cb-4c76-836d-72c2d6364a8e,chase,120,9.0,3.675,1,83,77
b70d0259-cb69-48f1-b026-46452cf6e70f,wander,180,19.0,4.177,0,83,78
7ef8daac-db75-4ee8-a071-f88ace7368fa,chase,60,89.0,3.542,1,83,79
8af66fd7-6ab4-47a3-a88c-02fd34772ac6,wander,180,4.0,3.558,1,83,80
cd35aaa0-2e49-4c68-9db3-f26fb9be29c5,chase,0,100.0,3.108,1,83,81
9d561139-a905-406b-83a0-38ea62293ed9,chase,90,88.0,3.858,1,83,82
4fb304a5-e4d9-4469-a34d-360a50cb0d09,chase,60,77.0,3.42,1,83,83
5dbc75c6-6973-4ae1-aaf0-d3b84feb4723,wander,180,0.0,8.482,1,324,0
12ba80f8-98cb-4c76-836d-72c2d6364a8e,chase,120,99.0,7.916,1,324,1
bc18f2bb-8e1a-4fcf-bc63-d56da485f828,chase,90,100.0,4.055,1,324,2
7da2bf99-2525-456c-889d-33e4d57cefac,chase,150,98.0,3.988,1,324,3
ebb2b54b-03ef-482e-98e6-c30b11e93f54,chase,90,100.0,4.851,1,324,4
c1b6f573-136b-414a-a6ec-8628f66a51e1,chase,150,65.0,4.487,0,324,5
ae7d3eb8-dc5d-447b-b5c5-9b30fb3b8314,chase,60,100.0,4.654,1,324,6
184c8795-2f00-4c7d-bc10-bd7de3066a20,chase,60,98.0,3.87,1,324,7
a763322d-d8ef-4998-b3d2-05767e0273f2,chase,150,56.0,5.45,1,324,8
884bc951-67a6-42bd-8ea7-ece0c8745d3f,chase,0,100.0,4.561,1,324,9
2d4bdbd9-d1de-4787-8cc8-a317b9d4c68d,wander,180,72.0,3.389,1,324,10
c40a4196-baf2-4992-afe5-aeca6b69a170,chase,30,91.0,3.894,1,324,11
738dba2c-d7cb-488e-b971-0dc50c74bf4b,chase,30,97.0,4.052,1,324,12
68be0cf8-ea92-4566-b84a-cbd60b2e5547,wander,180,84.0,3.905,1,324,13
cd35aaa0-2e49-4c68-9db3-f26fb9be29c5,chase,0,100.0,3.298,1,324,14
93865245-a3be-41b2-a17e-29b2b6043800,chase,90,90.0,3.816,1,324,15
cd9d4d31-b57e-4c3d-86c6-267ce9eec948,chase,60,96.0,3.136,1,324,16
6d712780-43b4-49f9-9bb8-c6ef920b78bd,chase,0,98.0,3.483,1,324,17
2cf66fb7-ab1d-466b-be40-d9f856dc213f,wander,180,60.0,3.762,1,324,18
3dbf8de7-1bf7-4a43-a5e3-4366a94ea690,chase,90,93.0,2.958,1,324,19
58ff2cb6-e661-4be4-945c-d3f9ab5180c6,chase,150,81.0,3.586,1,324,20
7f76ce9f-1463-4e78-87a4-6a54cd80ee88,chase,90,93.0,3.217,1,324,21
bee25e5c-74fd-4f63-b2e7-43b8af6bb08c,chase,90,98.0,3.113,1,324,22
0ea90462-f5e2-47a7-bd4b-2ea1c0bb7293,chase,60,91.0,3.434,1,324,23
65c87d60-ca32-4b8c-862c-41cd8e585b4b,chase,0,100.0,3.129,1,324,24
dad72227-6303-403d-8c8f-61b79d192ff4,chase,120,82.0,3.942,1,324,25
24724e9a-8a79-4ab8-a58f-e007c5d00714,chase,120,88.0,3.119,1,324,26
2437aa32-b54d-48e7-b20d-fafb63156eb0,chase,0,100.0,3.239,1,324,27
c8a1258a-1920-42bf-98e8-6c2dcc03a258,chase,60,98.0,3.016,1,324,28
4f1db8f7-63a7-4e49-b31b-12adcf107bf0,chase,150,18.0,3.966,0,324,29
981221b7-2aa0-476c-b101-390d6cc3dd1a,chase,120,57.0,3.928,1,324,30
64e6dcf6-35e5-46ef-8d1c-80a6786a24f6,chase,90,80.0,2.999,1,324,31
c798455f-e351-48ee-b7cd-d27d6bb7ad61,chase,60,91.0,3.424,1,324,32
4b3782e4-fafc-4dd1-96aa-9b339f19d004,chase,0,100.0,3.169,1,324,33
496c052f-24cd-4731-b1a3-dc6a8076719b,chase,120,91.0,3.303,1,324,34
7d329546-ecf4-4612-8f00-c127c77d5d6c,chase,60,93.0,3.412,1,324,35
6164475a-8bff-4ee0-8fef-043a34cd7da5,chase,120,86.0,3.84,1,324,36
9d561139-a905-406b-83a0-38ea62293ed9,chase,90,84.0,3.351,1,324,37
a680f7c6-9605-4481-a14d-c24d8d7b99bc,chase,30,98.0,3.33,1,324,38
e4dd3e31-b4f2-4f66-9e70-0665b6bcd089,chase,30,93.0,4.2,1,324,39
398e7f33-6d63-47e3-9a9a-74e474cd8a1d,chase,30,95.0,7.112,1,324,40
f4c4b671-d1de-4b8d-adad-ab6e05900d81,chase,90,86.0,4.279,1,324,41
18c4991b-f4d6-47a6-b29a-81f425410c0e,chase,120,68.0,3.871,1,324,42
2383c97c-89dc-495f-8ec8-8a517a45ca6c,chase,90,93.0,2.962,1,324,43
5ce017a9-f595-403c-a861-53e49993751a,wander,180,73.0,3.085,1,324,44
84e883bc-3ec7-4bef-bdb3-2016001d7f47,chase,120,85.0,3.214,1,324,45
45126725-a7eb-4318-86c4-1af84082e8b8,chase,30,100.0,3.555,1,324,46
c5cf3c4d-84e7-4c90-a33b-9d7db4b01300,chase,0,100.0,3.188,1,324,47
599df54c-434d-46db-a56a-5698a4ae9a9e,chase,150,13.0,3.573,0,324,48
86edbcec-0b0a-41d9-9c9e-d5df43732237,chase,30,99.0,4.523,1,324,49
1c695094-312c-450a-ac7f-f994dabb958d,wander,180,42.0,3.775,1,324,50
81f068e9-cbbc-4d88-8e31-206979547986,chase,120,82.0,3.047,1,324,51
92158ea9-b156-4e87-a2e3-ff0845033b9c,chase,150,44.0,3.321,1,324,52
f1ea4cb7-98d0-45a4-8269-16f1aebf05e3,chase,30,99.0,3.555,1,324,53
21ca5095-0a92-499b-9d26-d8a5f4a0841a,wander,180,74.0,3.408,1,324,54
116d4cf9-2d22-4e06-8fbf-248789f8212c,chase,150,27.0,6.331,1,324,55
d145a05f-e3c9-4244-b83b-2792e29b0493,chase,150,78.0,3.562,1,324,56
977e0607-6332-4db4-ab12-9d17dce4dc85,wander,180,67.0,4.425,1,324,57
dbce0a8f-ba45-4265-a60e-b98acd0e16d0,chase,150,83.0,2.512,1,324,58
f9e978d5-51e5-401a-8c9a-df747f2dec53,chase,0,100.0,2.852,1,324,59
42d1593c-1903-4c06-8304-6d2b29c5be37,chase,30,100.0,3.502,1,324,60
67a027b6-67e1-4784-aaad-ab48b5731cca,chase,0,100.0,2.856,1,324,61
4fb58057-109b-400f-8b1d-d9afc6926a6c,chase,60,96.0,4.048,1,324,62
e5de8a7b-b080-44aa-9279-c42f7862e210,chase,0,100.0,2.992,1,324,63
2b3090fe-a6e0-4e32-8e43-767b0d526444,chase,60,99.0,3.525,1,324,64
7ef8daac-db75-4ee8-a071-f88ace7368fa,chase,60,98.0,3.876,1,324,65
1a3da098-0a3a-43af-af4a-a9fad5adcce6,chase,90,94.0,2.892,1,324,66
c4c5c990-2898-4b30-8454-9be48985cf75,chase,150,33.0,4.116,1,324,67
0ea38b84-b2dc-4072-b4b8-3dce5f53debc,chase,120,86.0,4.581,1,324,68
4fb304a5-e4d9-4469-a34d-360a50cb0d09,chase,60,98.0,3.165,1,324,69
64673dfa-0706-4fb2-a297-b988740292d5,chase,90,92.0,3.845,1,324,70
f8c01499-8009-448b-9476-a38a582d3db6,chase,150,44.0,3.944,1,324,71
cf6ad30a-98ab-45d8-98d9-92352096afee,chase,30,100.0,2.99,1,324,72
411043c2-72c5-48c5-8cb7-febcebc40f98,chase,30,99.0,3.035,1,324,73
46975d67-ead1-4d29-93d2-9fbd40dad49d,wander,180,42.0,4.142,0,324,74
b70d0259-cb69-48f1-b026-46452cf6e70f,wander,180,43.0,3.795,0,324,75
b3b1ce6f-50f4-4922-80d2-b53f06819db2,chase,120,98.0,3.279,1,324,76
1d35e834-4947-46b2-9cbd-816ea4587c6f,wander,180,59.0,3.728,0,324,77
c51864d5-4cd9-435e-8d8b-210c8454248a,chase,0,98.0,3.04,1,324,78
b75e278a-0fbd-474b-92b0-7038934dda4b,chase,30,98.0,2.854,1,324,79
8af66fd7-6ab4-47a3-a88c-02fd34772ac6,wander,180,88.0,3.621,1,324,80
068dfd59-6b9c-4eca-b60c-7eb73cc72305,chase,0,100.0,2.975,1,324,81
2667cf6b-8ba8-4919-a871-ecd9b2852bce,chase,120,64.0,3.609,1,324,82
4e913eda-699f-4aa1-831d-c82fb169914c,chase,60,100.0,2.957,1,324,83
0ea38b84-b2dc-4072-b4b8-3dce5f53debc,chase,120,31.0,9.09,1,161,0
068dfd59-6b9c-4eca-b60c-7eb73cc72305,chase,0,100.0,3.303,1,161,1
c5cf3c4d-84e7-4c90-a33b-9d7db4b01300,chase,0,92.0,9.351,1,161,2
cf6ad30a-98ab-45d8-98d9-92352096afee,chase,30,100.0,2.719,1,161,3
cd35aaa0-2e49-4c68-9db3-f26fb9be29c5,chase,0,83.0,3.603,1,161,4
599df54c-434d-46db-a56a-5698a4ae9a9e,chase,150,4.0,4.42,0,161,5
c51864d5-4cd9-435e-8d8b-210c8454248a,chase,0,96.0,2.571,1,161,6
5ce017a9-f595-403c-a861-53e49993751a,wander,180,53.0,3.33,1,161,7
2b3090fe-a6e0-4e32-8e43-767b0d526444,chase,60,100.0,2.818,1,161,8
c4c5c990-2898-4b30-8454-9be48985cf75,chase,150,10.0,3.203,1,161,9
f4c4b671-d1de-4b8d-adad-ab6e05900d81,chase,90,55.0,3.421,1,161,10
f1ea4cb7-98d0-45a4-8269-16f1aebf05e3,chase,30,93.0,2.835,1,161,11
411043c2-72c5-48c5-8cb7-febcebc40f98,chase,30,65.0,3.404,1,161,12
65c87d60-ca32-4b8c-862c-41cd8e585b4b,chase,0,76.0,3.237,1,161,13
c8a1258a-1920-42bf-98e8-6c2dcc03a258,chase,60,75.0,2.764,1,161,14
86edbcec-0b0a-41d9-9c9e-d5df43732237,chase,30,91.0,2.538,1,161,15
4fb58057-109b-400f-8b1d-d9afc6926a6c,chase,60,78.0,3.053,1,161,16
84e883bc-3ec7-4bef-bdb3-2016001d7f47,chase,120,13.0,2.954,0,161,17
bee25e5c-74fd-4f63-b2e7-43b8af6bb08c,chase,90,59.0,2.737,1,161,18
981221b7-2aa0-476c-b101-390d6cc3dd1a,chase,120,40.0,2.638,1,161,19
7da2bf99-2525-456c-889d-33e4d57cefac,chase,150,18.0,2.888,1,161,20
b75e278a-0fbd-474b-92b0-7038934dda4b,chase,30,86.0,2.821,1,161,21
46975d67-ead1-4d29-93d2-9fbd40dad49d,wander,180,25.0,3.07,0,161,22
884bc951-67a6-42bd-8ea7-ece0c8745d3f,chase,0,91.0,2.968,1,161,23
92158ea9-b156-4e87-a2e3-ff0845033b9c,chase,150,0.0,2.802,0,161,24
e4dd3e31-b4f2-4f66-9e70-0665b6bcd089,chase,30,69.0,2.549,1,161,25
64e6dcf6-35e5-46ef-8d1c-80a6786a24f6,chase,90,67.0,2.422,1,161,26
0ea90462-f5e2-47a7-bd4b-2ea1c0bb7293,chase,60,70.0,2.77,1,161,27
dad72227-6303-403d-8c8f-61b79d192ff4,chase,120,14.0,2.939,0,161,28
a680f7c6-9605-4481-a14d-c24d8d7b99bc,chase,30,62.0,2.353,1,161,29
2383c97c-89dc-495f-8ec8-8a517a45ca6c,chase,90,33.0,2.638,1,161,30
dbce0a8f-ba45-4265-a60e-b98acd0e16d0,chase,150,18.0,2.754,1,161,31
f8c01499-8009-448b-9476-a38a582d3db6,chase,150,26.0,2.486,1,161,32
ebb2b54b-03ef-482e-98e6-c30b11e93f54,chase,90,67.0,2.471,1,161,33
116d4cf9-2d22-4e06-8fbf-248789f8212c,chase,150,0.0,4.138,0,161,34
d145a05f-e3c9-4244-b83b-2792e29b0493,chase,150,5.0,2.904,1,161,35
2437aa32-b54d-48e7-b20d-fafb63156eb0,chase,0,93.0,2.771,1,161,36
4f1db8f7-63a7-4e49-b31b-12adcf107bf0,chase,150,0.0,2.587,1,161,37
67a027b6-67e1-4784-aaad-ab48b5731cca,chase,0,71.0,2.715,1,161,38
24724e9a-8a79-4ab8-a58f-e007c5d00714,chase,120,34.0,6.255,1,161,39
1d35e834-4947-46b2-9cbd-816ea4587c6f,wander,180,0.0,2.471,0,161,40
a763322d-d8ef-4998-b3d2-05767e0273f2,chase,150,0.0,2.522,0,161,41
9d561139-a905-406b-83a0-38ea62293ed9,chase,90,35.0,2.554,0,161,42
4fb304a5-e4d9-4469-a34d-360a50cb0d09,chase,60,75.0,2.721,1,161,43
21ca5095-0a92-499b-9d26-d8a5f4a0841a,wander,180,4.0,2.753,1,161,44
184c8795-2f00-4c7d-bc10-bd7de3066a20,chase,60,59.0,2.814,1,161,45
977e0607-6332-4db4-ab12-9d17dce4dc85,wander,180,6.0,2.923,1,161,46
6164475a-8bff-4ee0-8fef-043a34cd7da5,chase,120,34.0,2.287,1,161,47
2d4bdbd9-d1de-4787-8cc8-a317b9d4c68d,wander,180,11.0,3.455,1,161,48
8af66fd7-6ab4-47a3-a88c-02fd34772ac6,wander,180,0.0,2.538,0,161,49
7f76ce9f-1463-4e78-87a4-6a54cd80ee88,chase,90,57.0,3.622,1,161,50
3dbf8de7-1bf7-4a43-a5e3-4366a94ea690,chase,90,58.0,3.588,1,161,51
58ff2cb6-e661-4be4-945c-d3f9ab5180c6,chase,150,6.0,3.104,0,161,52
4b3782e4-fafc-4dd1-96aa-9b339f19d004,chase,0,66.0,3.033,1,161,53
7ef8daac-db75-4ee8-a071-f88ace7368fa,chase,60,72.0,2.754,1,161,54
42d1593c-1903-4c06-8304-6d2b29c5be37,chase,30,68.0,2.765,1,161,55
bc18f2bb-8e1a-4fcf-bc63-d56da485f828,chase,90,55.0,2.771,1,161,56
c40a4196-baf2-4992-afe5-aeca6b69a170,chase,30,74.0,5.572,1,161,57
398e7f33-6d63-47e3-9a9a-74e474cd8a1d,chase,30,82.0,2.655,1,161,58
cd9d4d31-b57e-4c3d-86c6-267ce9eec948,chase,60,77.0,2.671,1,161,59
18c4991b-f4d6-47a6-b29a-81f425410c0e,chase,120,10.0,3.521,0,161,60
738dba2c-d7cb-488e-b971-0dc50c74bf4b,chase,30,94.0,3.03,1,161,61
1c695094-312c-450a-ac7f-f994dabb958d,wander,180,7.0,2.723,1,161,62
b70d0259-cb69-48f1-b026-46452cf6e70f,wander,180,19.0,4.087,1,161,63
45126725-a7eb-4318-86c4-1af84082e8b8,chase,30,75.0,2.903,1,161,64
4e913eda-699f-4aa1-831d-c82fb169914c,chase,60,62.0,2.667,1,161,65
64673dfa-0706-4fb2-a297-b988740292d5,chase,90,53.0,3.237,1,161,66
5dbc75c6-6973-4ae1-aaf0-d3b84feb4723,wander,180,10.0,3.403,1,161,67
7d329546-ecf4-4612-8f00-c127c77d5d6c,chase,60,76.0,3.553,1,161,68
c798455f-e351-48ee-b7cd-d27d6bb7ad61,chase,60,59.0,2.511,1,161,69
12ba80f8-98cb-4c76-836d-72c2d6364a8e,chase,120,11.0,4.074,0,161,70
ae7d3eb8-dc5d-447b-b5c5-9b30fb3b8314,chase,60,62.0,2.553,1,161,71
1a3da098-0a3a-43af-af4a-a9fad5adcce6,chase,90,44.0,3.006,1,161,72
6d712780-43b4-49f9-9bb8-c6ef920b78bd,chase,0,83.0,2.972,1,161,73
81f068e9-cbbc-4d88-8e31-206979547986,chase,120,58.0,3.047,1,161,74
2667cf6b-8ba8-4919-a871-ecd9b2852bce,chase,120,7.0,3.855,0,161,75
2cf66fb7-ab1d-466b-be40-d9f856dc213f,wander,180,8.0,3.656,0,161,76
f9e978d5-51e5-401a-8c9a-df747f2dec53,chase,0,63.0,2.304,1,161,77
e5de8a7b-b080-44aa-9279-c42f7862e210,chase,0,79.0,3.146,1,161,78
93865245-a3be-41b2-a17e-29b2b6043800,chase,90,55.0,2.9,1,161,79
496c052f-24cd-4731-b1a3-dc6a8076719b,chase,120,42.0,3.303,1,161,80
c1b6f573-136b-414a-a6ec-8628f66a51e1,chase,150,6.0,3.736,0,161,81
b3b1ce6f-50f4-4922-80d2-b53f06819db2,chase,120,58.0,3.439,1,161,82
68be0cf8-ea92-4566-b84a-cbd60b2e5547,wander,180,29.0,3.289,0,161,83
5ce017a9-f595-403c-a861-53e49993751a,wander,180,77.0,5.785,1,225,0
f1ea4cb7-98d0-45a4-8269-16f1aebf05e3,chase,30,100.0,3.874,1,225,1
3dbf8de7-1bf7-4a43-a5e3-4366a94ea690,chase,90,85.0,4.251,1,225,2
cd9d4d31-b57e-4c3d-86c6-267ce9eec948,chase,60,90.0,4.392,1,225,3
e5de8a7b-b080-44aa-9279-c42f7862e210,chase,0,98.0,3.651,1,225,4
46975d67-ead1-4d29-93d2-9fbd40dad49d,wander,180,0.0,3.743,1,225,5
7da2bf99-2525-456c-889d-33e4d57cefac,chase,150,1.0,3.86,0,225,6
dbce0a8f-ba45-4265-a60e-b98acd0e16d0,chase,150,36.0,3.525,1,225,7
d145a05f-e3c9-4244-b83b-2792e29b0493,chase,150,62.0,3.835,1,225,8
2667cf6b-8ba8-4919-a871-ecd9b2852bce,chase,120,37.0,3.443,0,225,9
1a3da098-0a3a-43af-af4a-a9fad5adcce6,chase,90,73.0,3.534,1,225,10
c4c5c990-2898-4b30-8454-9be48985cf75,chase,150,13.0,4.249,0,225,11
411043c2-72c5-48c5-8cb7-febcebc40f98,chase,30,100.0,3.425,1,225,12
c51864d5-4cd9-435e-8d8b-210c8454248a,chase,0,100.0,4.382,1,225,13
ae7d3eb8-dc5d-447b-b5c5-9b30fb3b8314,chase,60,82.0,3.932,1,225,14
b3b1ce6f-50f4-4922-80d2-b53f06819db2,chase,120,92.0,3.646,1,225,15
2437aa32-b54d-48e7-b20d-fafb63156eb0,chase,0,89.0,3.501,1,225,16
981221b7-2aa0-476c-b101-390d6cc3dd1a,chase,120,39.0,3.197,1,225,17
2383c97c-89dc-495f-8ec8-8a517a45ca6c,chase,90,62.0,3.448,1,225,18
8af66fd7-6ab4-47a3-a88c-02fd34772ac6,wander,180,26.0,3.148,1,225,19
58ff2cb6-e661-4be4-945c-d3f9ab5180c6,chase,150,62.0,3.419,1,225,20
21ca5095-0a92-499b-9d26-d8a5f4a0841a,wander,180,28.0,4.416,0,225,21
93865245-a3be-41b2-a17e-29b2b6043800,chase,90,62.0,3.24,1,225,22
64673dfa-0706-4fb2-a297-b988740292d5,chase,90,81.0,3.654,1,225,23
f9e978d5-51e5-401a-8c9a-df747f2dec53,chase,0,83.0,3.65,0,225,24
884bc951-67a6-42bd-8ea7-ece0c8745d3f,chase,0,100.0,3.455,1,225,25
4f1db8f7-63a7-4e49-b31b-12adcf107bf0,chase,150,0.0,4.3,0,225,26
45126725-a7eb-4318-86c4-1af84082e8b8,chase,30,100.0,3.507,1,225,27
977e0607-6332-4db4-ab12-9d17dce4dc85,wander,180,20.0,3.122,0,225,28
68be0cf8-ea92-4566-b84a-cbd60b2e5547,wander,180,35.0,7.391,0,225,29
4b3782e4-fafc-4dd1-96aa-9b339f19d004,chase,0,100.0,3.257,1,225,30
599df54c-434d-46db-a56a-5698a4ae9a9e,chase,150,,10.015,0,225,31
dad72227-6303-403d-8c8f-61b79d192ff4,chase,120,29.0,3.615,1,225,32
18c4991b-f4d6-47a6-b29a-81f425410c0e,chase,120,41.0,2.907,0,225,33
7ef8daac-db75-4ee8-a071-f88ace7368fa,chase,60,97.0,3.546,1,225,34
b70d0259-cb69-48f1-b026-46452cf6e70f,wander,180,63.0,3.583,0,225,35
0ea38b84-b2dc-4072-b4b8-3dce5f53debc,chase,120,66.0,4.641,1,225,36
f4c4b671-d1de-4b8d-adad-ab6e05900d81,chase,90,30.0,3.75,1,225,37
24724e9a-8a79-4ab8-a58f-e007c5d00714,chase,120,46.0,4.126,1,225,38
184c8795-2f00-4c7d-bc10-bd7de3066a20,chase,60,66.0,5.252,1,225,39
67a027b6-67e1-4784-aaad-ab48b5731cca,chase,0,91.0,3.383,1,225,40
cd35aaa0-2e49-4c68-9db3-f26fb9be29c5,chase,0,97.0,4.025,1,225,41
86edbcec-0b0a-41d9-9c9e-d5df43732237,chase,30,97.0,3.56,1,225,42
e4dd3e31-b4f2-4f66-9e70-0665b6bcd089,chase,30,91.0,2.837,1,225,43
64e6dcf6-35e5-46ef-8d1c-80a6786a24f6,chase,90,82.0,2.792,1,225,44
c1b6f573-136b-414a-a6ec-8628f66a51e1,chase,150,33.0,3.206,0,225,45
2b3090fe-a6e0-4e32-8e43-767b0d526444,chase,60,82.0,3.811,1,225,46
398e7f33-6d63-47e3-9a9a-74e474cd8a1d,chase,30,91.0,4.73,1,225,47
116d4cf9-2d22-4e06-8fbf-248789f8212c,chase,150,27.0,8.844,0,225,48
84e883bc-3ec7-4bef-bdb3-2016001d7f47,chase,120,25.0,6.583,1,225,49
a763322d-d8ef-4998-b3d2-05767e0273f2,chase,150,13.0,4.643,0,225,50
1c695094-312c-450a-ac7f-f994dabb958d,wander,180,22.0,3.523,1,225,51
c8a1258a-1920-42bf-98e8-6c2dcc03a258,chase,60,95.0,3.374,1,225,52
9d561139-a905-406b-83a0-38ea62293ed9,chase,90,71.0,3.303,1,225,53
c798455f-e351-48ee-b7cd-d27d6bb7ad61,chase,60,97.0,3.792,1,225,54
2cf66fb7-ab1d-466b-be40-d9f856dc213f,wander,180,43.0,4.159,1,225,55
068dfd59-6b9c-4eca-b60c-7eb73cc72305,chase,0,99.0,3.84,1,225,56
65c87d60-ca32-4b8c-862c-41cd8e585b4b,chase,0,99.0,3.241,1,225,57
81f068e9-cbbc-4d88-8e31-206979547986,chase,120,61.0,3.588,1,225,58
f8c01499-8009-448b-9476-a38a582d3db6,chase,150,40.0,3.124,0,225,59
b75e278a-0fbd-474b-92b0-7038934dda4b,chase,30,81.0,3.201,1,225,60
7d329546-ecf4-4612-8f00-c127c77d5d6c,chase,60,92.0,2.752,1,225,61
4fb304a5-e4d9-4469-a34d-360a50cb0d09,chase,60,93.0,2.421,1,225,62
42d1593c-1903-4c06-8304-6d2b29c5be37,chase,30,98.0,2.551,1,225,63
6d712780-43b4-49f9-9bb8-c6ef920b78bd,chase,0,77.0,2.67,1,225,64
bc18f2bb-8e1a-4fcf-bc63-d56da485f828,chase,90,72.0,2.542,1,225,65
cf6ad30a-98ab-45d8-98d9-92352096afee,chase,30,80.0,3.208,1,225,66
92158ea9-b156-4e87-a2e3-ff0845033b9c,chase,150,26.0,3.161,0,225,67
c40a4196-baf2-4992-afe5-aeca6b69a170,chase,30,85.0,2.243,1,225,68
bee25e5c-74fd-4f63-b2e7-43b8af6bb08c,chase,90,82.0,2.571,1,225,69
ebb2b54b-03ef-482e-98e6-c30b11e93f54,chase,90,95.0,2.28,1,225,70
738dba2c-d7cb-488e-b971-0dc50c74bf4b,chase,30,76.0,3.627,1,225,71
1d35e834-4947-46b2-9cbd-816ea4587c6f,wander,180,6.0,4.707,1,225,72
2d4bdbd9-d1de-4787-8cc8-a317b9d4c68d,wander,180,1.0,3.764,0,225,73
496c052f-24cd-4731-b1a3-dc6a8076719b,chase,120,45.0,2.805,1,225,74
0ea90462-f5e2-47a7-bd4b-2ea1c0bb7293,chase,60,74.0,6.705,0,225,75
a680f7c6-9605-4481-a14d-c24d8d7b99bc,chase,30,87.0,4.023,1,225,76
7f76ce9f-1463-4e78-87a4-6a54cd80ee88,chase,90,85.0,3.339,1,225,77
6164475a-8bff-4ee0-8fef-043a34cd7da5,chase,120,41.0,2.623,1,225,78
12ba80f8-98cb-4c76-836d-72c2d6364a8e,chase,120,62.0,2.873,1,225,79
c5cf3c4d-84e7-4c90-a33b-9d7db4b01300,chase,0,98.0,2.668,1,225,80
4fb58057-109b-400f-8b1d-d9afc6926a6c,chase,60,93.0,2.31,1,225,81
5dbc75c6-6973-4ae1-aaf0-d3b84feb4723,wander,180,26.0,2.927,1,225,82
4e913eda-699f-4aa1-831d-c82fb169914c,chase,60,91.0,2.445,1,225,83
86edbcec-0b0a-41d9-9c9e-d5df43732237,chase,30,100.0,2.686,1,240,0
184c8795-2f00-4c7d-bc10-bd7de3066a20,chase,60,100.0,2.92,1,240,1
bee25e5c-74fd-4f63-b2e7-43b8af6bb08c,chase,90,100.0,2.84,1,240,2
bc18f2bb-8e1a-4fcf-bc63-d56da485f828,chase,90,0.0,5.169,1,240,3
5dbc75c6-6973-4ae1-aaf0-d3b84feb4723,wander,180,0.0,2.713,1,240,4
2667cf6b-8ba8-4919-a871-ecd9b2852bce,chase,120,0.0,3.445,1,240,5
4e913eda-699f-4aa1-831d-c82fb169914c,chase,60,100.0,2.832,1,240,6
0ea90462-f5e2-47a7-bd4b-2ea1c0bb7293,chase,60,100.0,2.771,1,240,7
068dfd59-6b9c-4eca-b60c-7eb73cc72305,chase,0,100.0,2.228,1,240,8
1d35e834-4947-46b2-9cbd-816ea4587c6f,wander,180,0.0,2.693,1,240,9
2d4bdbd9-d1de-4787-8cc8-a317b9d4c68d,wander,180,0.0,2.549,0,240,10
c5cf3c4d-84e7-4c90-a33b-9d7db4b01300,chase,0,100.0,2.185,1,240,11
93865245-a3be-41b2-a17e-29b2b6043800,chase,90,100.0,2.815,1,240,12
58ff2cb6-e661-4be4-945c-d3f9ab5180c6,chase,150,0.0,2.497,1,240,13
c798455f-e351-48ee-b7cd-d27d6bb7ad61,chase,60,100.0,2.344,1,240,14
116d4cf9-2d22-4e06-8fbf-248789f8212c,chase,150,0.0,3.003,1,240,15
496c052f-24cd-4731-b1a3-dc6a8076719b,chase,120,100.0,2.586,1,240,16
45126725-a7eb-4318-86c4-1af84082e8b8,chase,30,100.0,2.531,1,240,17
7f76ce9f-1463-4e78-87a4-6a54cd80ee88,chase,90,100.0,2.56,1,240,18
2cf66fb7-ab1d-466b-be40-d9f856dc213f,wander,180,100.0,3.392,1,240,19
981221b7-2aa0-476c-b101-390d6cc3dd1a,chase,120,100.0,2.54,1,240,20
0ea38b84-b2dc-4072-b4b8-3dce5f53debc,chase,120,100.0,2.671,1,240,21
c4c5c990-2898-4b30-8454-9be48985cf75,chase,150,0.0,2.67,1,240,22
68be0cf8-ea92-4566-b84a-cbd60b2e5547,wander,180,100.0,2.897,1,240,23
cd9d4d31-b57e-4c3d-86c6-267ce9eec948,chase,60,100.0,2.736,1,240,24
4f1db8f7-63a7-4e49-b31b-12adcf107bf0,chase,150,0.0,2.895,1,240,25
7d329546-ecf4-4612-8f00-c127c77d5d6c,chase,60,100.0,3.06,1,240,26
c1b6f573-136b-414a-a6ec-8628f66a51e1,chase,150,0.0,2.506,0,240,27
1a3da098-0a3a-43af-af4a-a9fad5adcce6,chase,90,100.0,2.319,1,240,28
b3b1ce6f-50f4-4922-80d2-b53f06819db2,chase,120,100.0,2.197,1,240,29
c51864d5-4cd9-435e-8d8b-210c8454248a,chase,0,100.0,2.305,1,240,30
dbce0a8f-ba45-4265-a60e-b98acd0e16d0,chase,150,100.0,2.532,1,240,31
21ca5095-0a92-499b-9d26-d8a5f4a0841a,wander,180,0.0,3.301,1,240,32
84e883bc-3ec7-4bef-bdb3-2016001d7f47,chase,120,0.0,3.149,1,240,33
4b3782e4-fafc-4dd1-96aa-9b339f19d004,chase,0,100.0,3.171,1,240,34
f9e978d5-51e5-401a-8c9a-df747f2dec53,chase,0,100.0,3.193,1,240,35
4fb58057-109b-400f-8b1d-d9afc6926a6c,chase,60,100.0,2.314,1,240,36
6164475a-8bff-4ee0-8fef-043a34cd7da5,chase,120,100.0,2.179,1,240,37
24724e9a-8a79-4ab8-a58f-e007c5d00714,chase,120,100.0,2.353,1,240,38
f8c01499-8009-448b-9476-a38a582d3db6,chase,150,0.0,3.059,1,240,39
884bc951-67a6-42bd-8ea7-ece0c8745d3f,chase,0,100.0,2.497,1,240,40
2437aa32-b54d-48e7-b20d-fafb63156eb0,chase,0,100.0,2.318,1,240,41
64e6dcf6-35e5-46ef-8d1c-80a6786a24f6,chase,90,100.0,1.854,1,240,42
ae7d3eb8-dc5d-447b-b5c5-9b30fb3b8314,chase,60,100.0,2.331,1,240,43
738dba2c-d7cb-488e-b971-0dc50c74bf4b,chase,30,100.0,2.363,1,240,44
cd35aaa0-2e49-4c68-9db3-f26fb9be29c5,chase,0,100.0,4.199,1,240,45
2383c97c-89dc-495f-8ec8-8a517a45ca6c,chase,90,100.0,1.988,1,240,46
a763322d-d8ef-4998-b3d2-05767e0273f2,chase,150,0.0,2.461,1,240,47
c40a4196-baf2-4992-afe5-aeca6b69a170,chase,30,100.0,2.933,1,240,48
4fb304a5-e4d9-4469-a34d-360a50cb0d09,chase,60,100.0,5.815,1,240,49
65c87d60-ca32-4b8c-862c-41cd8e585b4b,chase,0,100.0,1.831,1,240,50
92158ea9-b156-4e87-a2e3-ff0845033b9c,chase,150,100.0,2.6,1,240,51
dad72227-6303-403d-8c8f-61b79d192ff4,chase,120,100.0,2.5,1,240,52
8af66fd7-6ab4-47a3-a88c-02fd34772ac6,wander,180,0.0,3.073,1,240,53
398e7f33-6d63-47e3-9a9a-74e474cd8a1d,chase,30,100.0,2.38,1,240,54
64673dfa-0706-4fb2-a297-b988740292d5,chase,90,100.0,2.485,1,240,55
6d712780-43b4-49f9-9bb8-c6ef920b78bd,chase,0,100.0,2.288,1,240,56
c8a1258a-1920-42bf-98e8-6c2dcc03a258,chase,60,100.0,2.293,1,240,57
599df54c-434d-46db-a56a-5698a4ae9a9e,chase,150,0.0,3.04,0,240,58
67a027b6-67e1-4784-aaad-ab48b5731cca,chase,0,100.0,1.804,1,240,59
7da2bf99-2525-456c-889d-33e4d57cefac,chase,150,100.0,2.843,1,240,60
e5de8a7b-b080-44aa-9279-c42f7862e210,chase,0,100.0,2.162,1,240,61
9d561139-a905-406b-83a0-38ea62293ed9,chase,90,100.0,5.594,1,240,62
a680f7c6-9605-4481-a14d-c24d8d7b99bc,chase,30,100.0,1.721,1,240,63
42d1593c-1903-4c06-8304-6d2b29c5be37,chase,30,100.0,2.216,1,240,64
1c695094-312c-450a-ac7f-f994dabb958d,wander,180,100.0,3.343,1,240,65
977e0607-6332-4db4-ab12-9d17dce4dc85,wander,180,0.0,2.262,1,240,66
f4c4b671-d1de-4b8d-adad-ab6e05900d81,chase,90,100.0,3.183,1,240,67
ebb2b54b-03ef-482e-98e6-c30b11e93f54,chase,90,100.0,2.747,1,240,68
e4dd3e31-b4f2-4f66-9e70-0665b6bcd089,chase,30,100.0,3.631,1,240,69
cf6ad30a-98ab-45d8-98d9-92352096afee,chase,30,100.0,2.886,1,240,70
2b3090fe-a6e0-4e32-8e43-767b0d526444,chase,60,100.0,1.965,1,240,71
411043c2-72c5-48c5-8cb7-febcebc40f98,chase,30,100.0,3.017,1,240,72
5ce017a9-f595-403c-a861-53e49993751a,wander,180,100.0,1.874,1,240,73
81f068e9-cbbc-4d88-8e31-206979547986,chase,120,100.0,1.741,1,240,74
3dbf8de7-1bf7-4a43-a5e3-4366a94ea690,chase,90,100.0,1.998,1,240,75
b70d0259-cb69-48f1-b026-46452cf6e70f,wander,180,100.0,2.278,0,240,76
12ba80f8-98cb-4c76-836d-72c2d6364a8e,chase,120,0.0,2.536,0,240,77
18c4991b-f4d6-47a6-b29a-81f425410c0e,chase,120,0.0,4.621,1,240,78
46975d67-ead1-4d29-93d2-9fbd40dad49d,wander,180,0.0,2.76,1,240,79
7ef8daac-db75-4ee8-a071-f88ace7368fa,chase,60,100.0,3.461,1,240,80
d145a05f-e3c9-4244-b83b-2792e29b0493,chase,150,100.0,2.029,1,240,81
b75e278a-0fbd-474b-92b0-7038934dda4b,chase,30,100.0,2.115,1,240,82
f1ea4cb7-98d0-45a4-8269-16f1aebf05e3,chase,30,100.0,2.011,1,240,83
2667cf6b-8ba8-4919-a871-ecd9b2852bce,chase,120,15.0,7.378,0,71,0
21ca5095-0a92-499b-9d26-d8a5f4a0841a,wander,180,37.0,4.047,0,71,1
2cf66fb7-ab1d-466b-be40-d9f856dc213f,wander,180,53.0,3.749,1,71,2
4f1db8f7-63a7-4e49-b31b-12adcf107bf0,chase,150,13.0,5.148,0,71,3
93865245-a3be-41b2-a17e-29b2b6043800,chase,90,78.0,2.717,1,71,4
92158ea9-b156-4e87-a2e3-ff0845033b9c,chase,150,56.0,4.315,1,71,5
64673dfa-0706-4fb2-a297-b988740292d5,chase,90,62.0,3.715,1,71,6
068dfd59-6b9c-4eca-b60c-7eb73cc72305,chase,0,99.0,1.648,1,71,7
b3b1ce6f-50f4-4922-80d2-b53f06819db2,chase,120,67.0,2.263,1,71,8
4fb58057-109b-400f-8b1d-d9afc6926a6c,chase,60,87.0,2.281,1,71,9
b75e278a-0fbd-474b-92b0-7038934dda4b,chase,30,100.0,1.831,1,71,10
f1ea4cb7-98d0-45a4-8269-16f1aebf05e3,chase,30,97.0,1.734,1,71,11
c798455f-e351-48ee-b7cd-d27d6bb7ad61,chase,60,89.0,2.766,1,71,12
65c87d60-ca32-4b8c-862c-41cd8e585b4b,chase,0,91.0,1.665,1,71,13
496c052f-24cd-4731-b1a3-dc6a8076719b,chase,120,64.0,3.399,1,71,14
cf6ad30a-98ab-45d8-98d9-92352096afee,chase,30,88.0,2.348,1,71,15
4e913eda-699f-4aa1-831d-c82fb169914c,chase,60,78.0,2.114,1,71,16
bee25e5c-74fd-4f63-b2e7-43b8af6bb08c,chase,90,72.0,1.382,1,71,17
884bc951-67a6-42bd-8ea7-ece0c8745d3f,chase,0,95.0,2.182,1,71,18
2d4bdbd9-d1de-4787-8cc8-a317b9d4c68d,wander,180,39.0,4.982,1,71,19
a763322d-d8ef-4998-b3d2-05767e0273f2,chase,150,29.0,3.833,1,71,20
c8a1258a-1920-42bf-98e8-6c2dcc03a258,chase,60,67.0,2.007,1,71,21
2383c97c-89dc-495f-8ec8-8a517a45ca6c,chase,90,63.0,3.495,1,71,22
f4c4b671-d1de-4b8d-adad-ab6e05900d81,chase,90,51.0,3.781,1,71,23
c5cf3c4d-84e7-4c90-a33b-9d7db4b01300,chase,0,65.0,2.165,1,71,24
e5de8a7b-b080-44aa-9279-c42f7862e210,chase,0,71.0,3.498,1,71,25
f8c01499-8009-448b-9476-a38a582d3db6,chase,150,49.0,5.734,1,71,26
9d561139-a905-406b-83a0-38ea62293ed9,chase,90,58.0,1.911,1,71,27
bc18f2bb-8e1a-4fcf-bc63-d56da485f828,chase,90,58.0,2.984,1,71,28
d145a05f-e3c9-4244-b83b-2792e29b0493,chase,150,68.0,4.22,1,71,29
12ba80f8-98cb-4c76-836d-72c2d6364a8e,chase,120,69.0,2.536,1,71,30
cd9d4d31-b57e-4c3d-86c6-267ce9eec948,chase,60,92.0,2.198,1,71,31
7da2bf99-2525-456c-889d-33e4d57cefac,chase,150,51.0,3.916,0,71,32
c4c5c990-2898-4b30-8454-9be48985cf75,chase,150,36.0,5.037,1,71,33
184c8795-2f00-4c7d-bc10-bd7de3066a20,chase,60,78.0,2.836,1,71,34
4b3782e4-fafc-4dd1-96aa-9b339f19d004,chase,0,100.0,2.694,1,71,35
5dbc75c6-6973-4ae1-aaf0-d3b84feb4723,wander,180,51.0,3.7,1,71,36
ebb2b54b-03ef-482e-98e6-c30b11e93f54,chase,90,61.0,2.4,1,71,37
6164475a-8bff-4ee0-8fef-043a34cd7da5,chase,120,68.0,2.314,1,71,38
68be0cf8-ea92-4566-b84a-cbd60b2e5547,wander,180,61.0,2.229,0,71,39
86edbcec-0b0a-41d9-9c9e-d5df43732237,chase,30,88.0,1.419,1,71,40
116d4cf9-2d22-4e06-8fbf-248789f8212c,chase,150,24.0,6.767,0,71,41
b70d0259-cb69-48f1-b026-46452cf6e70f,wander,180,51.0,3.849,0,71,42
1c695094-312c-450a-ac7f-f994dabb958d,wander,180,52.0,3.147,1,71,43
2b3090fe-a6e0-4e32-8e43-767b0d526444,chase,60,92.0,2.983,1,71,44
738dba2c-d7cb-488e-b971-0dc50c74bf4b,chase,30,93.0,2.318,1,71,45
398e7f33-6d63-47e3-9a9a-74e474cd8a1d,chase,30,88.0,2.351,1,71,46
2437aa32-b54d-48e7-b20d-fafb63156eb0,chase,0,98.0,1.972,1,71,47
a680f7c6-9605-4481-a14d-c24d8d7b99bc,chase,30,88.0,2.915,1,71,48
977e0607-6332-4db4-ab12-9d17dce4dc85,wander,180,75.0,2.983,0,71,49
c51864d5-4cd9-435e-8d8b-210c8454248a,chase,0,93.0,2.748,1,71,50
c1b6f573-136b-414a-a6ec-8628f66a51e1,chase,150,17.0,5.918,0,71,51
ae7d3eb8-dc5d-447b-b5c5-9b30fb3b8314,chase,60,80.0,3.061,1,71,52
0ea38b84-b2dc-4072-b4b8-3dce5f53debc,chase,120,66.0,2.849,1,71,53
4fb304a5-e4d9-4469-a34d-360a50cb0d09,chase,60,75.0,2.766,1,71,54
cd35aaa0-2e49-4c68-9db3-f26fb9be29c5,chase,0,91.0,2.726,1,71,55
58ff2cb6-e661-4be4-945c-d3f9ab5180c6,chase,150,88.0,2.793,1,71,56
7d329546-ecf4-4612-8f00-c127c77d5d6c,chase,60,93.0,2.367,1,71,57
46975d67-ead1-4d29-93d2-9fbd40dad49d,wander,180,2.0,2.817,0,71,58
1d35e834-4947-46b2-9cbd-816ea4587c6f,wander,180,16.0,2.777,1,71,59
45126725-a7eb-4318-86c4-1af84082e8b8,chase,30,91.0,2.427,1,71,60
f9e978d5-51e5-401a-8c9a-df747f2dec53,chase,0,100.0,2.145,1,71,61
3dbf8de7-1bf7-4a43-a5e3-4366a94ea690,chase,90,79.0,2.561,1,71,62
981221b7-2aa0-476c-b101-390d6cc3dd1a,chase,120,58.0,2.509,1,71,63
7f76ce9f-1463-4e78-87a4-6a54cd80ee88,chase,90,60.0,2.439,1,71,64
411043c2-72c5-48c5-8cb7-febcebc40f98,chase,30,77.0,2.398,1,71,65
8af66fd7-6ab4-47a3-a88c-02fd34772ac6,wander,180,35.0,3.03,1,71,66
599df54c-434d-46db-a56a-5698a4ae9a9e,chase,150,28.0,1.957,1,71,67
c40a4196-baf2-4992-afe5-aeca6b69a170,chase,30,78.0,3.586,1,71,68
0ea90462-f5e2-47a7-bd4b-2ea1c0bb7293,chase,60,80.0,2.269,1,71,69
42d1593c-1903-4c06-8304-6d2b29c5be37,chase,30,88.0,3.216,1,71,70
dbce0a8f-ba45-4265-a60e-b98acd0e16d0,chase,150,29.0,3.149,0,71,71
81f068e9-cbbc-4d88-8e31-206979547986,chase,120,76.0,2.259,1,71,72
7ef8daac-db75-4ee8-a071-f88ace7368fa,chase,60,83.0,2.054,1,71,73
dad72227-6303-403d-8c8f-61b79d192ff4,chase,120,39.0,2.45,1,71,74
24724e9a-8a79-4ab8-a58f-e007c5d00714,chase,120,61.0,4.159,1,71,75
18c4991b-f4d6-47a6-b29a-81f425410c0e,chase,120,61.0,2.348,1,71,76
64e6dcf6-35e5-46ef-8d1c-80a6786a24f6,chase,90,62.0,2.85,1,71,77
5ce017a9-f595-403c-a861-53e49993751a,wander,180,70.0,3.782,1,71,78
6d712780-43b4-49f9-9bb8-c6ef920b78bd,chase,0,83.0,2.281,1,71,79
1a3da098-0a3a-43af-af4a-a9fad5adcce6,chase,90,78.0,3.264,1,71,80
84e883bc-3ec7-4bef-bdb3-2016001d7f47,chase,120,51.0,7.568,1,71,81
67a027b6-67e1-4784-aaad-ab48b5731cca,chase,0,93.0,2.001,1,71,82
e4dd3e31-b4f2-4f66-9e70-0665b6bcd089,chase,30,88.0,1.865,1,71,83
184c8795-2f00-4c7d-bc10-bd7de3066a20,chase,60,100.0,4.321,1,10,0
