,subID,subtlety,slider,RT,accuracy,trial_ind,rating180,diff_from_180
0,2,0,96.41666666666667,2.5809166666666665,1.0,37.416666666666664,19.916666666666668,76.5
1,2,30,90.25,2.5516666666666667,1.0,44.75,19.916666666666668,70.33333333333333
2,2,60,82.25,2.49875,1.0,48.083333333333336,19.916666666666668,62.33333333333333
3,2,90,67.0,2.4305,1.0,37.083333333333336,19.916666666666668,47.08333333333333
4,2,120,50.0,2.94375,1.0,40.25,19.916666666666668,30.083333333333332
5,2,150,21.166666666666668,2.970916666666667,0.8333333333333334,42.416666666666664,19.916666666666668,1.25
6,2,180,19.916666666666668,3.0132499999999998,0.5,40.5,19.916666666666668,0.0
7,4,0,82.5,4.627666666666667,0.9166666666666666,36.166666666666664,40.27272727272727,42.22727272727273
8,4,30,78.5,4.742249999999999,1.0,27.25,40.27272727272727,38.22727272727273
9,4,60,69.9090909090909,5.610833333333333,0.8333333333333334,45.916666666666664,40.27272727272727,29.636363636363633
10,4,90,62.25,4.1314166666666665,1.0,49.916666666666664,40.27272727272727,21.977272727272727
11,4,120,47.416666666666664,5.08475,0.9166666666666666,36.25,40.27272727272727,7.143939393939391
12,4,150,36.09090909090909,5.221166666666666,0.6666666666666666,55.25,40.27272727272727,-4.18181818181818
13,4,180,40.27272727272727,4.9424166666666665,0.4166666666666667,39.75,40.27272727272727,0.0
14,5,0,86.41666666666667,3.0498333333333334,1.0,38.583333333333336,38.333333333333336,48.083333333333336
15,5,30,84.41666666666667,2.997,1.0,39.25,38.333333333333336,46.083333333333336
16,5,60,80.08333333333333,3.5909999999999997,1.0,33.75,38.333333333333336,41.74999999999999
17,5,90,63.5,2.8664166666666664,0.75,51.75,38.333333333333336,25.166666666666664
18,5,120,45.583333333333336,2.8804166666666666,0.6666666666666666,43.0,38.333333333333336,7.25
19,5,150,39.75,2.73625,0.6666666666666666,53.833333333333336,38.333333333333336,1.4166666666666643
20,5,180,38.333333333333336,2.8789166666666666,0.5,30.333333333333332,38.333333333333336,0.0
21,6,0,75.91666666666667,3.4148333333333336,1.0,40.25,41.77777777777778,34.13888888888889
22,6,30,70.75,3.29625,1.0,37.666666666666664,41.77777777777778,28.97222222222222
23,6,60,71.0,3.1606666666666663,1.0,49.833333333333336,41.77777777777778,29.22222222222222
24,6,90,60.166666666666664,3.2129166666666666,1.0,44.916666666666664,41.77777777777778,18.388888888888886
25,6,120,50.833333333333336,3.4568333333333334,0.8333333333333334,47.083333333333336,41.77777777777778,9.055555555555557
26,6,150,43.916666666666664,3.624166666666667,0.75,43.583333333333336,41.77777777777778,2.1388888888888857
27,6,180,41.77777777777778,5.827083333333333,0.4166666666666667,27.166666666666668,41.77777777777778,0.0
28,7,0,93.16666666666667,1.9106666666666667,1.0,46.833333333333336,28.75,64.41666666666667
29,7,30,83.41666666666667,1.9565000000000001,0.9166666666666666,45.083333333333336,28.75,54.66666666666667
30,7,60,85.0,1.9886666666666668,1.0,38.083333333333336,28.75,56.25
31,7,90,64.75,2.204833333333333,0.8333333333333334,36.416666666666664,28.75,36.0
32,7,120,33.916666666666664,2.269416666666667,0.8333333333333334,47.416666666666664,28.75,5.166666666666664
33,7,150,29.166666666666668,2.08625,0.5833333333333334,39.083333333333336,28.75,0.41666666666666785
34,7,180,28.75,2.563833333333333,0.5833333333333334,37.583333333333336,28.75,0.0
35,9,0,83.25,1.8185,1.0,46.666666666666664,10.25,73.0
36,9,30,80.83333333333333,1.9310833333333333,1.0,41.833333333333336,10.25,70.58333333333333
37,9,60,71.16666666666667,1.9736666666666667,1.0,43.833333333333336,10.25,60.91666666666667
38,9,90,53.416666666666664,2.2726666666666664,1.0,34.5,10.25,43.166666666666664
39,9,120,27.5,2.125166666666667,0.9166666666666666,44.5,10.25,17.25
40,9,150,13.916666666666666,2.1597500000000003,0.9166666666666666,39.083333333333336,10.25,3.666666666666666
41,9,180,10.25,2.5050833333333333,0.5833333333333334,40.083333333333336,10.25,0.0
42,10,0,97.16666666666667,3.60075,1.0,39.25,12.583333333333334,84.58333333333334
43,10,30,97.58333333333333,3.0088333333333335,1.0,44.25,12.583333333333334,85.0
44,10,60,82.41666666666667,4.299166666666666,0.8333333333333334,22.5,12.583333333333334,69.83333333333334
45,10,90,67.41666666666667,3.574583333333333,0.9166666666666666,47.666666666666664,12.583333333333334,54.833333333333336
46,10,120,21.166666666666668,3.590666666666667,0.6666666666666666,47.583333333333336,12.583333333333334,8.583333333333334
47,10,150,5.5,3.9465833333333333,0.3333333333333333,42.333333333333336,12.583333333333334,-7.083333333333334
48,10,180,12.583333333333334,3.7270833333333333,0.5833333333333334,46.916666666666664,12.583333333333334,0.0
49,12,0,100.0,2.024583333333333,1.0,36.0,24.25,75.75
50,12,30,100.0,1.9829166666666669,1.0,59.083333333333336,24.25,75.75
51,12,60,99.91666666666667,2.8251666666666666,1.0,41.5,24.25,75.66666666666667
52,12,90,96.91666666666667,2.3831666666666664,1.0,33.916666666666664,24.25,72.66666666666667
53,12,120,81.5,2.5496666666666665,1.0,37.083333333333336,24.25,57.25
54,12,150,42.5,2.9114166666666663,1.0,48.0,24.25,18.25
55,12,180,24.25,3.115,0.5833333333333334,34.916666666666664,24.25,0.0
56,13,0,95.58333333333333,3.8355,1.0,43.0,34.0,61.58333333333333
57,13,30,94.91666666666667,4.47225,1.0,50.0,34.0,60.91666666666667
58,13,60,82.25,4.053083333333333,0.9166666666666666,29.833333333333332,34.0,48.25
59,13,90,73.27272727272727,3.924583333333333,0.8333333333333334,38.916666666666664,34.0,39.272727272727266
60,13,120,42.0,3.12525,0.9166666666666666,39.333333333333336,34.0,8.0
61,13,150,15.25,3.938,0.8333333333333334,42.416666666666664,34.0,-18.75
62,13,180,34.0,4.0151666666666666,0.5833333333333334,47.0,34.0,0.0
63,14,0,94.16666666666667,3.2444166666666665,1.0,37.666666666666664,8.666666666666666,85.5
64,14,30,97.83333333333333,3.293416666666667,1.0,39.75,8.666666666666666,89.16666666666666
65,14,60,95.08333333333333,3.157666666666667,1.0,40.25,8.666666666666666,86.41666666666666
66,14,90,71.0,3.3476666666666666,1.0,26.916666666666668,8.666666666666666,62.333333333333336
67,14,120,32.5,3.142916666666667,0.9166666666666666,43.333333333333336,8.666666666666666,23.833333333333336
68,14,150,14.25,3.4614166666666666,0.8333333333333334,46.5,8.666666666666666,5.583333333333334
69,14,180,8.666666666666666,3.3501666666666665,0.6666666666666666,56.083333333333336,8.666666666666666,0.0
70,15,0,82.25,6.5255,0.8333333333333334,43.666666666666664,67.41666666666667,14.833333333333329
71,15,30,74.25,5.8068333333333335,0.75,34.916666666666664,67.41666666666667,6.833333333333329
72,15,60,77.58333333333333,5.247083333333333,0.9166666666666666,43.416666666666664,67.41666666666667,10.166666666666657
73,15,90,74.5,5.318583333333334,0.75,39.833333333333336,67.41666666666667,7.083333333333329
74,15,120,68.45454545454545,5.782583333333334,0.75,37.416666666666664,67.41666666666667,1.0378787878787818
75,15,150,50.75,5.74025,0.6666666666666666,42.416666666666664,67.41666666666667,-16.66666666666667
76,15,180,67.41666666666667,5.668916666666667,0.5833333333333334,48.833333333333336,67.41666666666667,0.0
77,16,0,88.0,6.831833333333333,0.8333333333333334,57.0,27.666666666666668,60.33333333333333
78,16,30,83.91666666666667,5.9383333333333335,1.0,39.5,27.666666666666668,56.25
79,16,60,79.1,6.91275,0.75,25.666666666666668,27.666666666666668,51.43333333333332
80,16,90,71.45454545454545,6.391583333333333,0.8333333333333334,29.916666666666668,27.666666666666668,43.78787878787878
81,16,120,49.0,5.792583333333333,0.75,46.5,27.666666666666668,21.333333333333332
82,16,150,26.0,6.2115,0.6666666666666666,38.833333333333336,27.666666666666668,-1.6666666666666679
83,16,180,27.666666666666668,6.410583333333332,0.25,53.083333333333336,27.666666666666668,0.0
84,18,0,81.75,3.1910833333333333,1.0,52.75,22.833333333333332,58.91666666666667
85,18,30,73.5,3.376583333333333,0.9166666666666666,42.416666666666664,22.833333333333332,50.66666666666667
86,18,60,74.36363636363636,3.4292499999999997,0.9166666666666666,41.0,22.833333333333332,51.53030303030303
87,18,90,63.166666666666664,2.8690833333333337,1.0,32.083333333333336,22.833333333333332,40.33333333333333
88,18,120,39.75,3.1504999999999996,0.6666666666666666,51.666666666666664,22.833333333333332,16.916666666666668
89,18,150,25.333333333333332,2.953583333333333,0.75,35.916666666666664,22.833333333333332,2.5
90,18,180,22.833333333333332,3.4595000000000002,0.5,34.666666666666664,22.833333333333332,0.0
91,19,0,95.66666666666667,2.935416666666667,1.0,32.833333333333336,17.333333333333332,78.33333333333334
92,19,30,92.58333333333333,2.94375,1.0,40.166666666666664,17.333333333333332,75.25
93,19,60,82.58333333333333,2.89625,1.0,42.5,17.333333333333332,65.25
94,19,90,65.0,3.0305,1.0,49.75,17.333333333333332,47.66666666666667
95,19,120,46.75,3.4491666666666667,1.0,44.916666666666664,17.333333333333332,29.416666666666668
96,19,150,11.333333333333334,4.028333333333333,0.75,34.166666666666664,17.333333333333332,-5.999999999999998
97,19,180,17.333333333333332,3.2593333333333336,0.5,46.166666666666664,17.333333333333332,0.0
98,20,0,84.41666666666667,4.0215000000000005,0.9166666666666666,40.916666666666664,28.0,56.41666666666667
99,20,30,84.75,3.794583333333333,0.8333333333333334,39.0,28.0,56.75
100,20,60,67.58333333333333,4.06775,0.9166666666666666,44.666666666666664,28.0,39.58333333333333
101,20,90,61.81818181818182,4.499,0.75,44.75,28.0,33.81818181818182
102,20,120,41.083333333333336,4.3687499999999995,0.8333333333333334,46.083333333333336,28.0,13.083333333333336
103,20,150,28.666666666666668,4.263083333333333,0.4166666666666667,33.25,28.0,0.6666666666666679
104,20,180,28.0,4.75175,0.6666666666666666,41.833333333333336,28.0,0.0
105,21,0,97.58333333333333,2.9099166666666663,1.0,39.0,25.083333333333332,72.5
106,21,30,97.5,3.641583333333333,1.0,54.75,25.083333333333332,72.41666666666667
107,21,60,97.16666666666667,3.1313333333333335,1.0,47.833333333333336,25.083333333333332,72.08333333333334
108,21,90,58.5,3.4316666666666666,0.75,34.083333333333336,25.083333333333332,33.41666666666667
109,21,120,42.916666666666664,3.5227500000000003,0.6666666666666666,42.416666666666664,25.083333333333332,17.833333333333332
110,21,150,17.75,3.06475,0.5833333333333334,32.416666666666664,25.083333333333332,-7.333333333333332
111,21,180,25.083333333333332,3.637916666666667,0.4166666666666667,40.0,25.083333333333332,0.0
112,25,0,97.66666666666667,2.607083333333333,1.0,38.0,17.166666666666668,80.5
113,25,30,96.66666666666667,2.282,1.0,50.833333333333336,17.166666666666668,79.5
114,25,60,97.66666666666667,2.6145,1.0,31.0,17.166666666666668,80.5
115,25,90,97.83333333333333,2.519,1.0,48.666666666666664,17.166666666666668,80.66666666666666
116,25,120,81.91666666666667,2.6281666666666665,1.0,36.666666666666664,17.166666666666668,64.75
117,25,150,32.916666666666664,2.983083333333333,0.75,36.583333333333336,17.166666666666668,15.749999999999996
118,25,180,17.166666666666668,3.2118333333333333,0.75,48.75,17.166666666666668,0.0
119,26,0,98.25,3.78175,1.0,47.333333333333336,12.083333333333334,86.16666666666667
120,26,30,98.08333333333333,3.162333333333333,1.0,45.833333333333336,12.083333333333334,86.0
121,26,60,95.58333333333333,3.0635833333333333,1.0,37.0,12.083333333333334,83.5
122,26,90,77.25,3.018666666666667,1.0,47.583333333333336,12.083333333333334,65.16666666666667
123,26,120,45.583333333333336,3.2234166666666666,0.8333333333333334,41.25,12.083333333333334,33.5
124,26,150,10.181818181818182,3.83975,0.5,27.5,12.083333333333334,-1.9015151515151523
125,26,180,12.083333333333334,3.156833333333333,0.6666666666666666,44.0,12.083333333333334,0.0
126,27,0,94.5,3.4924999999999997,1.0,40.916666666666664,11.666666666666666,82.83333333333333
127,27,30,97.91666666666667,3.186916666666667,1.0,46.25,11.666666666666666,86.25
128,27,60,81.0,3.765333333333333,1.0,40.083333333333336,11.666666666666666,69.33333333333333
129,27,90,89.5,3.78125,1.0,48.833333333333336,11.666666666666666,77.83333333333333
130,27,120,41.81818181818182,4.499083333333333,0.5833333333333334,36.916666666666664,11.666666666666666,30.151515151515156
131,27,150,11.363636363636363,4.265,0.5,43.416666666666664,11.666666666666666,-0.30303030303030276
132,27,180,11.666666666666666,4.223833333333333,0.5833333333333334,34.083333333333336,11.666666666666666,0.0
133,28,0,91.25,1.9580833333333334,1.0,35.166666666666664,23.454545454545453,67.79545454545455
134,28,30,88.83333333333333,2.05425,1.0,42.0,23.454545454545453,65.37878787878788
135,28,60,85.83333333333333,2.3205,0.75,50.416666666666664,23.454545454545453,62.378787878787875
136,28,90,80.25,1.9669166666666669,1.0,47.25,23.454545454545453,56.79545454545455
137,28,120,41.75,2.3998333333333335,0.75,41.5,23.454545454545453,18.295454545454547
138,28,150,31.916666666666668,2.5054166666666666,0.5833333333333334,36.333333333333336,23.454545454545453,8.462121212121215
139,28,180,23.454545454545453,3.0056666666666665,0.5,37.833333333333336,23.454545454545453,0.0
140,29,0,95.91666666666667,3.87675,1.0,47.666666666666664,4.333333333333333,91.58333333333334
141,29,30,96.08333333333333,3.9431666666666665,1.0,43.0,4.333333333333333,91.75
142,29,60,91.45454545454545,4.6705,0.9166666666666666,42.25,4.333333333333333,87.12121212121212
143,29,90,75.63636363636364,5.359666666666667,0.8333333333333334,32.583333333333336,4.333333333333333,71.30303030303031
144,29,120,23.083333333333332,4.933833333333333,0.75,41.5,4.333333333333333,18.75
145,29,150,22.75,4.6045,0.75,33.0,4.333333333333333,18.416666666666668
146,29,180,4.333333333333333,5.303833333333333,0.6666666666666666,50.5,4.333333333333333,0.0
147,31,0,87.25,3.5595,1.0,35.416666666666664,41.416666666666664,45.833333333333336
148,31,30,84.75,3.4559166666666665,1.0,47.333333333333336,41.416666666666664,43.333333333333336
149,31,60,74.0,3.39125,1.0,47.0,41.416666666666664,32.583333333333336
150,31,90,68.33333333333333,3.248416666666667,1.0,37.166666666666664,41.416666666666664,26.916666666666664
151,31,120,54.583333333333336,3.57075,1.0,39.416666666666664,41.416666666666664,13.166666666666671
152,31,150,21.25,3.4384166666666665,0.75,48.75,41.416666666666664,-20.166666666666664
153,31,180,41.416666666666664,3.5584166666666666,0.5,35.416666666666664,41.416666666666664,0.0
154,33,0,97.83333333333333,3.1193333333333335,1.0,36.166666666666664,19.416666666666668,78.41666666666666
155,33,30,96.91666666666667,2.717166666666667,1.0,29.666666666666668,19.416666666666668,77.5
156,33,60,89.66666666666667,3.0664166666666666,1.0,40.083333333333336,19.416666666666668,70.25
157,33,90,75.58333333333333,3.0188333333333333,1.0,36.0,19.416666666666668,56.16666666666666
158,33,120,22.083333333333332,3.7095833333333332,1.0,52.0,19.416666666666668,2.6666666666666643
159,33,150,18.416666666666668,3.68575,0.75,45.5,19.416666666666668,-1.0
160,33,180,19.416666666666668,3.845333333333333,0.6666666666666666,51.083333333333336,19.416666666666668,0.0
161,34,0,84.25,2.5103333333333335,1.0,46.916666666666664,56.166666666666664,28.083333333333336
162,34,30,82.41666666666667,2.4094166666666665,1.0,39.916666666666664,56.166666666666664,26.250000000000007
163,34,60,76.58333333333333,2.596833333333333,1.0,47.166666666666664,56.166666666666664,20.416666666666664
164,34,90,75.25,2.6489166666666666,0.9166666666666666,35.416666666666664,56.166666666666664,19.083333333333336
165,34,120,52.25,2.5010833333333333,1.0,34.416666666666664,56.166666666666664,-3.9166666666666643
166,34,150,26.75,3.405,0.75,42.666666666666664,56.166666666666664,-29.416666666666664
167,34,180,56.166666666666664,2.6775,0.5833333333333334,44.0,56.166666666666664,0.0
168,35,0,90.58333333333333,3.1200833333333335,1.0,47.083333333333336,15.916666666666666,74.66666666666666
169,35,30,97.91666666666667,3.1459166666666665,1.0,37.333333333333336,15.916666666666666,82.0
170,35,60,97.91666666666667,3.0111666666666665,1.0,35.5,15.916666666666666,82.0
171,35,90,90.83333333333333,2.9242500000000002,0.9166666666666666,49.416666666666664,15.916666666666666,74.91666666666666
172,35,120,39.75,3.3209166666666667,0.75,39.666666666666664,15.916666666666666,23.833333333333336
173,35,150,25.25,2.9576666666666664,0.8333333333333334,42.333333333333336,15.916666666666666,9.333333333333334
174,35,180,15.916666666666666,3.3064999999999998,0.5,39.166666666666664,15.916666666666666,0.0
175,37,0,100.0,2.0683333333333334,1.0,41.5,6.75,93.25
176,37,30,100.0,2.049916666666667,1.0,47.166666666666664,6.75,93.25
177,37,60,100.0,2.082666666666667,1.0,37.833333333333336,6.75,93.25
178,37,90,83.33333333333333,2.1658333333333335,1.0,33.25,6.75,76.58333333333333
179,37,120,17.916666666666668,2.00225,0.9166666666666666,36.416666666666664,6.75,11.166666666666668
180,37,150,8.333333333333334,2.029166666666667,0.9166666666666666,46.916666666666664,6.75,1.583333333333334
181,37,180,6.75,2.3061666666666665,0.5,47.416666666666664,6.75,0.0
182,41,0,87.5,3.6285833333333333,1.0,54.25,66.5,21.0
183,41,30,86.66666666666667,3.3067499999999996,1.0,29.416666666666668,66.5,20.16666666666667
184,41,60,84.75,3.43875,1.0,26.333333333333332,66.5,18.25
185,41,90,75.5,3.5684166666666663,1.0,51.25,66.5,9.0
186,41,120,74.83333333333333,3.750666666666667,0.9166666666666666,48.25,66.5,8.333333333333329
187,41,150,63.25,4.582999999999999,0.9166666666666666,44.666666666666664,66.5,-3.25
188,41,180,66.5,4.443666666666666,0.6666666666666666,36.333333333333336,66.5,0.0
189,42,0,96.0,3.7077500000000003,0.9166666666666666,31.75,3.5833333333333335,92.41666666666667
190,42,30,95.91666666666667,3.2464999999999997,1.0,43.0,3.5833333333333335,92.33333333333334
191,42,60,88.33333333333333,3.051833333333333,0.9166666666666666,44.083333333333336,3.5833333333333335,84.75
192,42,90,54.0,3.33625,0.75,37.583333333333336,3.5833333333333335,50.416666666666664
193,42,120,20.0,2.7914999999999996,0.6666666666666666,44.083333333333336,3.5833333333333335,16.416666666666668
194,42,150,3.9166666666666665,3.43975,0.75,49.583333333333336,3.5833333333333335,0.33333333333333304
195,42,180,3.5833333333333335,3.0661666666666663,0.5,40.416666666666664,3.5833333333333335,0.0
196,43,0,83.41666666666667,3.62575,1.0,45.416666666666664,39.666666666666664,43.75000000000001
197,43,30,78.33333333333333,3.2904166666666668,1.0,27.666666666666668,39.666666666666664,38.666666666666664
198,43,60,70.58333333333333,3.230166666666667,0.9166666666666666,31.0,39.666666666666664,30.916666666666664
199,43,90,69.36363636363636,4.175833333333333,0.75,44.25,39.666666666666664,29.696969696969695
200,43,120,66.66666666666667,3.012,0.75,51.083333333333336,39.666666666666664,27.000000000000007
201,43,150,50.083333333333336,3.0941666666666667,0.8333333333333334,46.583333333333336,39.666666666666664,10.416666666666671
202,43,180,39.666666666666664,3.2225,0.6666666666666666,44.5,39.666666666666664,0.0
203,44,0,82.25,1.8774166666666667,0.9166666666666666,50.583333333333336,21.75,60.5
204,44,30,88.83333333333333,1.6294166666666667,1.0,49.0,21.75,67.08333333333333
205,44,60,83.91666666666667,1.72875,1.0,44.416666666666664,21.75,62.16666666666667
206,44,90,68.25,1.7283333333333333,1.0,45.25,21.75,46.5
207,44,120,46.333333333333336,1.8125833333333334,0.6666666666666666,26.0,21.75,24.583333333333336
208,44,150,21.166666666666668,2.028,0.75,32.333333333333336,21.75,-0.5833333333333321
209,44,180,21.75,1.854,0.6666666666666666,42.916666666666664,21.75,0.0
210,45,0,92.16666666666667,3.762083333333333,1.0,40.5,8.416666666666666,83.75
211,45,30,97.66666666666667,3.599,1.0,34.0,8.416666666666666,89.25
212,45,60,95.25,4.079166666666667,1.0,42.333333333333336,8.416666666666666,86.83333333333333
213,45,90,89.75,3.6180833333333333,1.0,46.833333333333336,8.416666666666666,81.33333333333333
214,45,120,41.916666666666664,3.753916666666667,1.0,42.833333333333336,8.416666666666666,33.5
215,45,150,15.416666666666666,3.7885000000000004,0.5,46.583333333333336,8.416666666666666,7.0
216,45,180,8.416666666666666,3.52,0.3333333333333333,37.416666666666664,8.416666666666666,0.0
217,46,0,92.0,4.641416666666667,1.0,46.25,29.5,62.5
218,46,30,88.5,4.315416666666667,1.0,36.416666666666664,29.5,59.0
219,46,60,78.25,3.694333333333333,1.0,52.583333333333336,29.5,48.75
220,46,90,65.16666666666667,4.1120833333333335,1.0,38.833333333333336,29.5,35.66666666666667
221,46,120,51.25,4.274583333333333,0.75,40.166666666666664,29.5,21.75
222,46,150,32.90909090909091,4.71875,0.6666666666666666,33.583333333333336,29.5,3.4090909090909065
223,46,180,29.5,4.089166666666666,0.6666666666666666,42.666666666666664,29.5,0.0
224,47,0,97.16666666666667,3.0058333333333334,1.0,51.333333333333336,7.25,89.91666666666667
225,47,30,98.83333333333333,2.6003333333333334,1.0,37.416666666666664,7.25,91.58333333333333
226,47,60,94.5,3.187583333333333,1.0,34.75,7.25,87.25
227,47,90,90.16666666666667,2.9314999999999998,1.0,41.0,7.25,82.91666666666667
228,47,120,28.083333333333332,3.1305,1.0,39.416666666666664,7.25,20.833333333333332
229,47,150,28.833333333333332,3.5573333333333337,0.5,40.333333333333336,7.25,21.583333333333332
230,47,180,7.25,3.0292499999999998,0.5,46.25,7.25,0.0
231,48,0,96.66666666666667,2.4909166666666667,1.0,41.833333333333336,34.0,62.66666666666667
232,48,30,94.25,2.6263333333333336,1.0,48.0,34.0,60.25
233,48,60,87.41666666666667,3.0641666666666665,1.0,44.666666666666664,34.0,53.41666666666667
234,48,90,78.91666666666667,2.511833333333333,1.0,35.833333333333336,34.0,44.91666666666667
235,48,120,47.833333333333336,2.63325,0.8333333333333334,41.5,34.0,13.833333333333336
236,48,150,31.75,2.7093333333333334,0.6666666666666666,31.25,34.0,-2.25
237,48,180,34.0,2.7656666666666667,0.5,47.416666666666664,34.0,0.0
238,50,0,90.08333333333333,2.8594166666666667,1.0,42.25,4.916666666666667,85.16666666666666
239,50,30,83.5,3.175333333333333,1.0,44.416666666666664,4.916666666666667,78.58333333333333
240,50,60,78.83333333333333,3.035833333333333,0.9166666666666666,33.75,4.916666666666667,73.91666666666666
241,50,90,62.166666666666664,3.21875,0.9166666666666666,25.833333333333332,4.916666666666667,57.25
242,50,120,11.166666666666666,3.4745000000000004,0.6666666666666666,46.5,4.916666666666667,6.249999999999999
243,50,150,1.5833333333333333,3.2089999999999996,0.6666666666666666,54.25,4.916666666666667,-3.333333333333334
244,50,180,4.916666666666667,3.366,0.8333333333333334,43.5,4.916666666666667,0.0
245,55,0,100.0,2.4025833333333333,1.0,54.166666666666664,28.416666666666668,71.58333333333333
246,55,30,98.08333333333333,2.7071666666666663,1.0,42.666666666666664,28.416666666666668,69.66666666666666
247,55,60,96.91666666666667,2.4534166666666666,1.0,34.583333333333336,28.416666666666668,68.5
248,55,90,79.08333333333333,2.599666666666667,1.0,44.083333333333336,28.416666666666668,50.66666666666666
249,55,120,61.75,2.5529166666666665,0.8333333333333334,39.333333333333336,28.416666666666668,33.33333333333333
250,55,150,20.25,2.70175,0.6666666666666666,41.583333333333336,28.416666666666668,-8.166666666666668
251,55,180,28.416666666666668,2.594,0.4166666666666667,34.083333333333336,28.416666666666668,0.0
252,60,0,100.0,3.5595,1.0,37.083333333333336,22.333333333333332,77.66666666666667
253,60,30,98.75,3.5058333333333334,1.0,38.666666666666664,22.333333333333332,76.41666666666667
254,60,60,95.0,4.0281666666666665,0.9166666666666666,38.5,22.333333333333332,72.66666666666667
255,60,90,79.16666666666667,3.926,1.0,50.0,22.333333333333332,56.83333333333334
256,60,120,54.083333333333336,4.214083333333333,0.9166666666666666,41.75,22.333333333333332,31.750000000000004
257,60,150,12.833333333333334,4.06375,0.6666666666666666,37.0,22.333333333333332,-9.499999999999998
258,60,180,22.333333333333332,3.908,0.5833333333333334,47.5,22.333333333333332,0.0
259,63,0,99.33333333333333,3.4012499999999997,1.0,45.5,13.333333333333334,86.0
260,63,30,98.25,4.069833333333333,1.0,38.5,13.333333333333334,84.91666666666667
261,63,60,94.41666666666667,3.956166666666667,0.8333333333333334,35.416666666666664,13.333333333333334,81.08333333333334
262,63,90,72.66666666666667,3.987833333333333,1.0,40.0,13.333333333333334,59.333333333333336
263,63,120,29.333333333333332,4.21725,0.8333333333333334,46.333333333333336,13.333333333333334,15.999999999999998
264,63,150,16.0,4.02325,0.5833333333333334,44.083333333333336,13.333333333333334,2.666666666666666
265,63,180,13.333333333333334,4.042166666666667,0.5,40.666666666666664,13.333333333333334,0.0
266,65,0,83.58333333333333,2.88875,0.9166666666666666,44.333333333333336,35.833333333333336,47.74999999999999
267,65,30,83.0,2.9751666666666665,0.8333333333333334,41.666666666666664,35.833333333333336,47.166666666666664
268,65,60,77.83333333333333,3.3487500000000003,0.9166666666666666,48.75,35.833333333333336,41.99999999999999
269,65,90,69.08333333333333,3.0210833333333333,0.8333333333333334,47.083333333333336,35.833333333333336,33.24999999999999
270,65,120,48.833333333333336,3.517333333333333,0.75,33.75,35.833333333333336,13.0
271,65,150,34.75,3.4099166666666663,0.8333333333333334,30.916666666666668,35.833333333333336,-1.0833333333333357
272,65,180,35.833333333333336,3.203333333333333,0.5833333333333334,44.0,35.833333333333336,0.0
273,66,0,89.0,3.0560833333333335,0.9166666666666666,28.916666666666668,24.583333333333332,64.41666666666667
274,66,30,83.91666666666667,3.0780833333333333,0.6666666666666666,45.5,24.583333333333332,59.33333333333334
275,66,60,74.08333333333333,3.32975,0.8333333333333334,47.166666666666664,24.583333333333332,49.5
276,66,90,57.25,2.9164999999999996,0.6666666666666666,52.25,24.583333333333332,32.66666666666667
277,66,120,27.5,2.9731666666666663,0.5833333333333334,34.833333333333336,24.583333333333332,2.916666666666668
278,66,150,25.666666666666668,3.2762499999999997,0.4166666666666667,30.666666666666668,24.583333333333332,1.0833333333333357
279,66,180,24.583333333333332,2.9505,0.5833333333333334,51.166666666666664,24.583333333333332,0.0
280,69,0,98.16666666666667,2.339,1.0,40.166666666666664,36.083333333333336,62.083333333333336
281,69,30,95.41666666666667,2.5440833333333335,1.0,48.333333333333336,36.083333333333336,59.333333333333336
282,69,60,91.75,2.5104166666666665,0.9166666666666666,53.583333333333336,36.083333333333336,55.666666666666664
283,69,90,81.08333333333333,2.97325,0.9166666666666666,35.333333333333336,36.083333333333336,44.99999999999999
284,69,120,50.333333333333336,3.6203333333333334,0.75,36.833333333333336,36.083333333333336,14.25
285,69,150,20.833333333333332,3.20525,0.5,48.333333333333336,36.083333333333336,-15.250000000000004
286,69,180,36.083333333333336,3.24175,0.5833333333333334,27.916666666666668,36.083333333333336,0.0
287,70,0,96.83333333333333,2.984083333333333,1.0,46.583333333333336,19.5,77.33333333333333
288,70,30,93.83333333333333,3.0437499999999997,1.0,49.416666666666664,19.5,74.33333333333333
289,70,60,89.66666666666667,3.3219999999999996,1.0,42.916666666666664,19.5,70.16666666666667
290,70,90,77.0,4.0906666666666665,1.0,30.666666666666668,19.5,57.5
291,70,120,15.666666666666666,4.00125,0.75,35.416666666666664,19.5,-3.833333333333334
292,70,150,2.6666666666666665,3.503833333333333,0.3333333333333333,36.166666666666664,19.5,-16.833333333333332
293,70,180,19.5,4.015333333333333,0.5,49.333333333333336,19.5,0.0
294,71,0,89.91666666666667,2.310416666666667,1.0,41.333333333333336,45.166666666666664,44.75000000000001
295,71,30,88.66666666666667,2.3673333333333333,1.0,46.75,45.166666666666664,43.50000000000001
296,71,60,82.83333333333333,2.4751666666666665,1.0,39.333333333333336,45.166666666666664,37.666666666666664
297,71,90,65.16666666666667,2.7915833333333335,1.0,37.25,45.166666666666664,20.000000000000007
298,71,120,57.916666666666664,3.5026666666666664,0.9166666666666666,48.666666666666664,45.166666666666664,12.75
299,71,150,40.666666666666664,4.398916666666667,0.5833333333333334,36.166666666666664,45.166666666666664,-4.5
300,71,180,45.166666666666664,3.4243333333333332,0.5833333333333334,41.0,45.166666666666664,0.0
301,73,0,95.08333333333333,3.45225,1.0,28.416666666666668,13.416666666666666,81.66666666666666
302,73,30,99.0,4.10575,0.9166666666666666,42.416666666666664,13.416666666666666,85.58333333333333
303,73,60,95.66666666666667,4.027,0.9166666666666666,34.0,13.416666666666666,82.25
304,73,90,72.25,3.91775,1.0,43.0,13.416666666666666,58.833333333333336
305,73,120,39.833333333333336,3.3996666666666666,0.8333333333333334,42.416666666666664,13.416666666666666,26.41666666666667
306,73,150,16.0,3.8521666666666667,0.8333333333333334,45.25,13.416666666666666,2.583333333333334
307,73,180,13.416666666666666,3.861083333333333,0.4166666666666667,55.0,13.416666666666666,0.0
308,74,0,92.83333333333333,3.2855833333333333,0.9166666666666666,37.083333333333336,10.833333333333334,82.0
309,74,30,92.16666666666667,3.349083333333333,0.9166666666666666,33.583333333333336,10.833333333333334,81.33333333333334
310,74,60,69.91666666666667,3.3371666666666666,1.0,37.833333333333336,10.833333333333334,59.083333333333336
311,74,90,59.75,3.326833333333333,1.0,47.583333333333336,10.833333333333334,48.916666666666664
312,74,120,39.166666666666664,3.794916666666667,1.0,40.25,10.833333333333334,28.33333333333333
313,74,150,17.25,3.689916666666667,0.6666666666666666,56.666666666666664,10.833333333333334,6.416666666666666
314,74,180,10.833333333333334,3.6620833333333334,0.3333333333333333,37.5,10.833333333333334,0.0
315,75,0,99.33333333333333,3.298166666666667,1.0,48.25,16.5,82.83333333333333
316,75,30,97.75,3.3078333333333334,1.0,37.416666666666664,16.5,81.25
317,75,60,94.41666666666667,2.9955833333333337,1.0,35.75,16.5,77.91666666666667
318,75,90,81.5,3.2533333333333334,1.0,48.666666666666664,16.5,65.0
319,75,120,36.166666666666664,3.4916666666666667,1.0,32.083333333333336,16.5,19.666666666666664
320,75,150,16.333333333333332,3.3496666666666663,0.8333333333333334,33.0,16.5,-0.16666666666666785
321,75,180,16.5,3.39225,0.5833333333333334,55.333333333333336,16.5,0.0
322,78,0,92.5,3.37025,1.0,37.0,34.75,57.75
323,78,30,90.41666666666667,3.3891666666666667,0.9166666666666666,49.666666666666664,34.75,55.66666666666667
324,78,60,80.08333333333333,3.27975,1.0,40.416666666666664,34.75,45.33333333333333
325,78,90,72.91666666666667,3.8710833333333334,0.9166666666666666,35.333333333333336,34.75,38.16666666666667
326,78,120,48.25,3.4338333333333337,0.75,43.416666666666664,34.75,13.5
327,78,150,33.5,3.8735,0.4166666666666667,34.75,34.75,-1.25
328,78,180,34.75,3.6156666666666664,0.4166666666666667,49.916666666666664,34.75,0.0
329,81,0,99.83333333333333,3.485333333333333,1.0,30.5,21.0,78.83333333333333
330,81,30,98.58333333333333,3.4293333333333336,0.9166666666666666,46.416666666666664,21.0,77.58333333333333
331,81,60,91.45454545454545,3.687333333333333,0.8333333333333334,34.75,21.0,70.45454545454545
332,81,90,79.58333333333333,3.279,0.9166666666666666,48.416666666666664,21.0,58.58333333333333
333,81,120,61.75,3.904666666666667,0.8333333333333334,43.916666666666664,21.0,40.75
334,81,150,27.166666666666668,3.747,0.8333333333333334,47.166666666666664,21.0,6.166666666666668
335,81,180,21.0,4.7205,0.5833333333333334,39.333333333333336,21.0,0.0
336,82,0,78.91666666666667,2.5334166666666667,0.9166666666666666,58.166666666666664,45.416666666666664,33.50000000000001
337,82,30,88.33333333333333,2.4880833333333334,1.0,44.083333333333336,45.416666666666664,42.916666666666664
338,82,60,73.0,3.095333333333333,0.6666666666666666,36.416666666666664,45.416666666666664,27.583333333333336
339,82,90,70.58333333333333,2.37575,0.9166666666666666,35.166666666666664,45.416666666666664,25.166666666666664
340,82,120,61.916666666666664,2.4294166666666666,1.0,40.083333333333336,45.416666666666664,16.5
341,82,150,48.25,2.42975,0.75,36.416666666666664,45.416666666666664,2.8333333333333357
342,82,180,45.416666666666664,2.2643333333333335,0.9166666666666666,40.166666666666664,45.416666666666664,0.0
343,83,0,96.25,3.6551666666666667,1.0,38.916666666666664,8.166666666666666,88.08333333333333
344,83,30,94.75,3.8615833333333334,1.0,35.333333333333336,8.166666666666666,86.58333333333333
345,83,60,84.0,4.1000000000000005,1.0,37.0,8.166666666666666,75.83333333333333
346,83,90,63.833333333333336,4.018,1.0,45.166666666666664,8.166666666666666,55.66666666666667
347,83,120,26.916666666666668,4.2745,0.9166666666666666,45.916666666666664,8.166666666666666,18.75
348,83,150,3.5,4.328833333333333,0.8333333333333334,39.916666666666664,8.166666666666666,-4.666666666666666
349,83,180,8.166666666666666,4.086833333333334,0.75,48.25,8.166666666666666,0.0
350,84,0,99.66666666666667,3.5971666666666664,1.0,40.583333333333336,16.083333333333332,83.58333333333334
351,84,30,99.83333333333333,3.3255,1.0,51.333333333333336,16.083333333333332,83.75
352,84,60,99.91666666666667,3.856333333333333,1.0,35.083333333333336,16.083333333333332,83.83333333333334
353,84,90,91.0,3.9348333333333336,1.0,44.666666666666664,16.083333333333332,74.91666666666667
354,84,120,41.916666666666664,3.951166666666667,0.5,30.166666666666668,16.083333333333332,25.833333333333332
355,84,150,16.833333333333332,3.3056666666666668,0.75,45.416666666666664,16.083333333333332,0.75
356,84,180,16.083333333333332,4.012083333333333,0.4166666666666667,43.25,16.083333333333332,0.0
357,85,0,100.0,2.4354999999999998,1.0,42.0,0.0,100.0
358,85,30,100.0,2.6549166666666664,1.0,39.5,0.0,100.0
359,85,60,91.41666666666667,2.30625,1.0,55.666666666666664,0.0,91.41666666666667
360,85,90,47.083333333333336,2.6926666666666663,0.75,37.25,0.0,47.083333333333336
361,85,120,14.0,2.2615833333333333,0.6666666666666666,45.5,0.0,14.0
362,85,150,0.08333333333333333,2.4750833333333335,0.5,36.833333333333336,0.0,0.08333333333333333
363,85,180,0.0,2.473333333333333,0.5,33.75,0.0,0.0
364,86,0,83.41666666666667,2.6285000000000003,1.0,48.083333333333336,18.583333333333332,64.83333333333334
365,86,30,78.75,2.800166666666667,1.0,24.916666666666668,18.583333333333332,60.16666666666667
366,86,60,74.91666666666667,2.5329166666666665,1.0,31.75,18.583333333333332,56.33333333333334
367,86,90,53.666666666666664,2.528,0.9166666666666666,54.666666666666664,18.583333333333332,35.08333333333333
368,86,120,40.5,2.75075,0.9166666666666666,41.833333333333336,18.583333333333332,21.916666666666668
369,86,150,17.166666666666668,2.8684999999999996,0.5833333333333334,47.583333333333336,18.583333333333332,-1.4166666666666643
370,86,180,18.583333333333332,2.6814999999999998,0.5833333333333334,41.666666666666664,18.583333333333332,0.0
371,87,0,79.83333333333333,2.7711666666666663,1.0,46.0,48.0,31.83333333333333
372,87,30,80.91666666666667,2.6946666666666665,1.0,28.583333333333332,48.0,32.91666666666667
373,87,60,75.08333333333333,2.7590833333333333,1.0,41.166666666666664,48.0,27.08333333333333
374,87,90,65.83333333333333,2.5351666666666666,1.0,50.0,48.0,17.83333333333333
375,87,120,60.083333333333336,2.620833333333333,0.8333333333333334,45.333333333333336,48.0,12.083333333333336
376,87,150,44.583333333333336,3.4890833333333333,0.75,33.583333333333336,48.0,-3.4166666666666643
377,87,180,48.0,2.6084166666666664,0.75,45.833333333333336,48.0,0.0
378,89,0,93.5,5.476583333333333,1.0,32.833333333333336,7.5,86.0
379,89,30,89.36363636363636,6.221416666666666,0.8333333333333334,38.166666666666664,7.5,81.86363636363636
380,89,60,71.72727272727273,7.085916666666666,0.8333333333333334,42.166666666666664,7.5,64.22727272727273
381,89,90,45.333333333333336,7.088166666666666,0.9166666666666666,40.0,7.5,37.833333333333336
382,89,120,15.166666666666666,5.916250000000001,0.5,44.0,7.5,7.666666666666666
383,89,150,10.666666666666666,5.7235000000000005,0.6666666666666666,49.666666666666664,7.5,3.166666666666666
384,89,180,7.5,5.452916666666667,0.6666666666666666,43.666666666666664,7.5,0.0
385,90,0,98.66666666666667,3.7825,0.9166666666666666,44.5,23.0,75.66666666666667
386,90,30,94.41666666666667,3.7655833333333333,1.0,39.166666666666664,23.0,71.41666666666667
387,90,60,83.75,4.0296666666666665,1.0,41.166666666666664,23.0,60.75
388,90,90,74.0,4.118333333333333,1.0,45.583333333333336,23.0,51.0
389,90,120,37.333333333333336,3.9619166666666668,0.8333333333333334,47.75,23.0,14.333333333333336
390,90,150,26.75,4.044416666666667,0.8333333333333334,40.666666666666664,23.0,3.75
391,90,180,23.0,3.8825000000000003,0.5,31.666666666666668,23.0,0.0
392,92,0,86.33333333333333,2.621583333333333,1.0,50.75,24.916666666666668,61.41666666666666
393,92,30,78.41666666666667,2.463,1.0,27.583333333333332,24.916666666666668,53.5
394,92,60,70.33333333333333,2.9790000000000005,0.9166666666666666,49.416666666666664,24.916666666666668,45.41666666666666
395,92,90,66.5,2.4479166666666665,1.0,51.75,24.916666666666668,41.58333333333333
396,92,120,37.333333333333336,3.0925,0.75,22.666666666666668,24.916666666666668,12.416666666666668
397,92,150,30.166666666666668,2.525333333333333,0.6666666666666666,48.333333333333336,24.916666666666668,5.25
398,92,180,24.916666666666668,2.6495,0.5,40.0,24.916666666666668,0.0
399,93,0,90.25,2.9114166666666663,1.0,35.25,35.75,54.5
400,93,30,85.83333333333333,3.064666666666667,1.0,54.916666666666664,35.75,50.08333333333333
401,93,60,88.0,3.0674166666666665,1.0,39.666666666666664,35.75,52.25
402,93,90,79.66666666666667,2.7888333333333333,1.0,34.5,35.75,43.91666666666667
403,93,120,64.41666666666667,2.855583333333333,0.8333333333333334,49.583333333333336,35.75,28.66666666666667
404,93,150,30.083333333333332,3.263833333333333,0.75,36.083333333333336,35.75,-5.666666666666668
405,93,180,35.75,3.217166666666667,0.5833333333333334,40.5,35.75,0.0
406,94,0,92.75,3.6449166666666666,1.0,34.833333333333336,16.0,76.75
407,94,30,89.41666666666667,3.4924999999999997,1.0,36.0,16.0,73.41666666666667
408,94,60,78.91666666666667,3.919083333333333,1.0,44.333333333333336,16.0,62.91666666666667
409,94,90,72.08333333333333,3.5682500000000004,0.9166666666666666,39.333333333333336,16.0,56.08333333333333
410,94,120,51.5,3.90925,0.8333333333333334,42.25,16.0,35.5
411,94,150,17.75,4.27325,0.6666666666666666,46.75,16.0,1.75
412,94,180,16.0,4.381166666666666,0.5,47.0,16.0,0.0
413,96,0,99.58333333333333,2.0370833333333334,1.0,40.083333333333336,29.833333333333332,69.75
414,96,30,99.33333333333333,2.1976666666666667,1.0,51.0,29.833333333333332,69.5
415,96,60,89.0,2.128833333333333,1.0,42.416666666666664,29.833333333333332,59.16666666666667
416,96,90,72.58333333333333,2.2718333333333334,1.0,44.333333333333336,29.833333333333332,42.75
417,96,120,44.583333333333336,2.65925,0.9166666666666666,43.25,29.833333333333332,14.750000000000004
418,96,150,22.083333333333332,2.6326666666666667,0.4166666666666667,41.0,29.833333333333332,-7.75
419,96,180,29.833333333333332,2.6245,0.5,28.416666666666668,29.833333333333332,0.0
420,98,0,83.83333333333333,2.8682499999999997,1.0,46.916666666666664,52.5,31.33333333333333
421,98,30,82.66666666666667,2.9163333333333337,1.0,36.916666666666664,52.5,30.16666666666667
422,98,60,75.83333333333333,2.77875,1.0,42.25,52.5,23.33333333333333
423,98,90,72.16666666666667,3.2325,0.9166666666666666,32.083333333333336,52.5,19.66666666666667
424,98,120,58.166666666666664,3.2838333333333334,0.9166666666666666,47.166666666666664,52.5,5.666666666666664
425,98,150,48.75,3.0024166666666665,0.5833333333333334,48.916666666666664,52.5,-3.75
426,98,180,52.5,3.2588333333333335,0.5,36.25,52.5,0.0
427,101,0,93.83333333333333,2.5563333333333333,1.0,53.166666666666664,31.545454545454547,62.28787878787878
428,101,30,77.75,3.8549166666666665,0.9166666666666666,22.75,31.545454545454547,46.20454545454545
429,101,60,79.54545454545455,4.1338333333333335,0.8333333333333334,42.0,31.545454545454547,48.0
430,101,90,62.166666666666664,3.3540833333333335,0.9166666666666666,51.25,31.545454545454547,30.621212121212118
431,101,120,37.166666666666664,2.9194999999999998,0.5833333333333334,38.333333333333336,31.545454545454547,5.6212121212121176
432,101,150,15.083333333333334,2.7396666666666665,0.6666666666666666,49.333333333333336,31.545454545454547,-16.46212121212121
433,101,180,31.545454545454547,3.760833333333333,0.8333333333333334,33.666666666666664,31.545454545454547,0.0
434,102,0,96.16666666666667,2.4780833333333336,1.0,43.583333333333336,10.75,85.41666666666667
435,102,30,87.83333333333333,2.4655,1.0,40.166666666666664,10.75,77.08333333333333
436,102,60,80.33333333333333,2.4735833333333335,1.0,42.416666666666664,10.75,69.58333333333333
437,102,90,58.25,3.079,0.8333333333333334,45.75,10.75,47.5
438,102,120,32.25,2.967916666666667,0.8333333333333334,35.75,10.75,21.5
439,102,150,11.666666666666666,2.769,0.6666666666666666,37.25,10.75,0.9166666666666661
440,102,180,10.75,2.8128333333333333,0.5,45.583333333333336,10.75,0.0
441,104,0,100.0,2.9436666666666667,1.0,40.416666666666664,8.333333333333334,91.66666666666667
442,104,30,99.91666666666667,2.8265833333333332,1.0,43.166666666666664,8.333333333333334,91.58333333333334
443,104,60,83.33333333333333,3.0005,1.0,51.916666666666664,8.333333333333334,75.0
444,104,90,66.66666666666667,2.9901666666666666,1.0,42.416666666666664,8.333333333333334,58.333333333333336
445,104,120,16.666666666666668,3.3105833333333337,0.8333333333333334,38.75,8.333333333333334,8.333333333333334
446,104,150,0.0,2.983083333333333,0.75,37.666666666666664,8.333333333333334,-8.333333333333334
447,104,180,8.333333333333334,3.0454166666666667,0.5833333333333334,36.166666666666664,8.333333333333334,0.0
448,105,0,95.91666666666667,2.3768333333333334,1.0,44.583333333333336,30.416666666666668,65.5
449,105,30,91.91666666666667,2.27375,1.0,40.833333333333336,30.416666666666668,61.5
450,105,60,87.83333333333333,2.3605,1.0,48.166666666666664,30.416666666666668,57.41666666666666
451,105,90,74.16666666666667,2.53225,1.0,35.083333333333336,30.416666666666668,43.75
452,105,120,55.0,2.791166666666667,1.0,36.083333333333336,30.416666666666668,24.583333333333332
453,105,150,34.583333333333336,2.4754166666666664,0.8333333333333334,44.416666666666664,30.416666666666668,4.166666666666668
454,105,180,30.416666666666668,2.8225833333333337,0.4166666666666667,41.333333333333336,30.416666666666668,0.0
455,106,0,96.41666666666667,3.8090833333333336,0.8333333333333334,48.333333333333336,40.916666666666664,55.50000000000001
456,106,30,89.83333333333333,4.179,1.0,35.5,40.916666666666664,48.916666666666664
457,106,60,94.41666666666667,3.54675,1.0,47.5,40.916666666666664,53.50000000000001
458,106,90,75.0,3.794166666666667,1.0,37.25,40.916666666666664,34.083333333333336
459,106,120,54.75,4.136166666666667,0.75,40.25,40.916666666666664,13.833333333333336
460,106,150,39.416666666666664,3.7914166666666667,0.8333333333333334,46.666666666666664,40.916666666666664,-1.5
461,106,180,40.916666666666664,4.335416666666666,0.4166666666666667,35.0,40.916666666666664,0.0
462,107,0,76.41666666666667,3.1460000000000004,1.0,45.333333333333336,40.0,36.41666666666667
463,107,30,74.83333333333333,3.2748333333333335,0.9166666666666666,36.25,40.0,34.83333333333333
464,107,60,71.25,2.9559166666666665,1.0,37.166666666666664,40.0,31.25
465,107,90,65.16666666666667,2.888083333333334,1.0,45.5,40.0,25.16666666666667
466,107,120,55.5,3.3378333333333337,1.0,43.916666666666664,40.0,15.5
467,107,150,40.166666666666664,3.18525,0.6666666666666666,36.5,40.0,0.1666666666666643
468,107,180,40.0,3.3280833333333333,0.6666666666666666,45.833333333333336,40.0,0.0
469,108,0,100.0,3.186,1.0,29.583333333333332,33.333333333333336,66.66666666666666
470,108,30,99.75,3.0015,1.0,46.833333333333336,33.333333333333336,66.41666666666666
471,108,60,99.91666666666667,3.06225,1.0,36.916666666666664,33.333333333333336,66.58333333333334
472,108,90,97.33333333333333,3.1595833333333334,1.0,40.0,33.333333333333336,63.99999999999999
473,108,120,74.0,3.16925,0.9166666666666666,55.5,33.333333333333336,40.666666666666664
474,108,150,26.333333333333332,3.595916666666667,0.25,40.333333333333336,33.333333333333336,-7.0000000000000036
475,108,180,33.333333333333336,3.2219166666666665,0.4166666666666667,41.333333333333336,33.333333333333336,0.0
476,111,0,90.08333333333333,2.9403333333333332,1.0,54.916666666666664,25.0,65.08333333333333
477,111,30,88.58333333333333,3.3366666666666664,1.0,45.333333333333336,25.0,63.58333333333333
478,111,60,83.91666666666667,3.2855000000000003,1.0,38.75,25.0,58.91666666666667
479,111,90,68.5,3.2140833333333334,1.0,40.833333333333336,25.0,43.5
480,111,120,48.666666666666664,3.230833333333333,0.9166666666666666,41.833333333333336,25.0,23.666666666666664
481,111,150,22.0,3.3486666666666665,0.75,39.583333333333336,25.0,-3.0
482,111,180,25.0,3.32975,0.6666666666666666,29.25,25.0,0.0
483,112,0,100.0,2.5530833333333334,1.0,41.0,25.083333333333332,74.91666666666667
484,112,30,100.0,2.889,1.0,30.5,25.083333333333332,74.91666666666667
485,112,60,100.0,2.7388333333333335,1.0,43.416666666666664,25.083333333333332,74.91666666666667
486,112,90,100.0,2.9728333333333334,1.0,48.5,25.083333333333332,74.91666666666667
487,112,120,66.91666666666667,2.785,0.9166666666666666,41.166666666666664,25.083333333333332,41.83333333333334
488,112,150,33.333333333333336,2.6666666666666665,0.5833333333333334,39.833333333333336,25.083333333333332,8.250000000000004
489,112,180,25.083333333333332,2.6801666666666666,0.5833333333333334,46.083333333333336,25.083333333333332,0.0
490,113,0,98.75,2.8955,1.0,42.333333333333336,6.583333333333333,92.16666666666667
491,113,30,98.75,2.5635833333333333,1.0,34.916666666666664,6.583333333333333,92.16666666666667
492,113,60,93.33333333333333,2.58975,1.0,48.916666666666664,6.583333333333333,86.75
493,113,90,82.41666666666667,2.6933333333333334,1.0,31.25,6.583333333333333,75.83333333333334
494,113,120,40.416666666666664,2.752333333333333,1.0,51.583333333333336,6.583333333333333,33.83333333333333
495,113,150,5.916666666666667,2.8794166666666663,0.6666666666666666,42.583333333333336,6.583333333333333,-0.6666666666666661
496,113,180,6.583333333333333,2.904333333333333,0.6666666666666666,38.916666666666664,6.583333333333333,0.0
497,114,0,98.91666666666667,3.1215833333333336,1.0,36.666666666666664,10.416666666666666,88.5
498,114,30,98.16666666666667,3.164,1.0,47.166666666666664,10.416666666666666,87.75
499,114,60,96.91666666666667,3.062583333333333,1.0,38.0,10.416666666666666,86.5
500,114,90,69.91666666666667,3.5124166666666667,1.0,53.25,10.416666666666666,59.50000000000001
501,114,120,22.166666666666668,3.541,0.8333333333333334,44.333333333333336,10.416666666666666,11.750000000000002
502,114,150,6.333333333333333,3.1338333333333335,0.3333333333333333,35.416666666666664,10.416666666666666,-4.083333333333333
503,114,180,10.416666666666666,3.5349166666666663,0.5833333333333334,35.666666666666664,10.416666666666666,0.0
504,115,0,92.33333333333333,2.0425833333333334,1.0,41.5,21.75,70.58333333333333
505,115,30,85.16666666666667,1.7693333333333332,1.0,49.75,21.75,63.41666666666667
506,115,60,78.25,2.1911666666666667,0.9166666666666666,45.25,21.75,56.5
507,115,90,64.75,2.0836666666666663,1.0,44.416666666666664,21.75,43.0
508,115,120,33.583333333333336,2.0874166666666665,0.75,29.666666666666668,21.75,11.833333333333336
509,115,150,22.916666666666668,2.9075,0.5833333333333334,28.0,21.75,1.1666666666666679
510,115,180,21.75,2.535,0.75,51.916666666666664,21.75,0.0
511,117,0,94.75,1.84825,0.9166666666666666,34.666666666666664,4.916666666666667,89.83333333333333
512,117,30,96.41666666666667,1.9587500000000002,1.0,42.25,4.916666666666667,91.5
513,117,60,89.91666666666667,1.9741666666666668,1.0,39.25,4.916666666666667,85.0
514,117,90,54.666666666666664,2.076166666666667,0.8333333333333334,41.916666666666664,4.916666666666667,49.75
515,117,120,23.666666666666668,2.0825833333333335,0.6666666666666666,46.75,4.916666666666667,18.75
516,117,150,5.333333333333333,2.0470833333333336,0.5833333333333334,44.5,4.916666666666667,0.4166666666666661
517,117,180,4.916666666666667,2.0269166666666667,0.6666666666666666,41.166666666666664,4.916666666666667,0.0
518,118,0,97.75,2.7816666666666667,1.0,46.25,16.0,81.75
519,118,30,98.91666666666667,2.2685833333333334,1.0,46.0,16.0,82.91666666666667
520,118,60,89.25,2.2367500000000002,1.0,34.083333333333336,16.0,73.25
521,118,90,68.0,2.5045,1.0,40.5,16.0,52.0
522,118,120,29.181818181818183,3.5336666666666665,0.75,39.75,16.0,13.181818181818183
523,118,150,20.166666666666668,2.51725,0.5833333333333334,44.666666666666664,16.0,4.166666666666668
524,118,180,16.0,3.206916666666667,0.9166666666666666,39.25,16.0,0.0
525,121,0,97.0,1.8270833333333334,0.9166666666666666,46.0,45.416666666666664,51.583333333333336
526,121,30,98.75,1.99625,0.9166666666666666,22.833333333333332,45.416666666666664,53.333333333333336
527,121,60,90.91666666666667,1.995,1.0,38.166666666666664,45.416666666666664,45.50000000000001
528,121,90,78.08333333333333,2.5893333333333333,1.0,42.25,45.416666666666664,32.666666666666664
529,121,120,69.5,2.49775,1.0,46.916666666666664,45.416666666666664,24.083333333333336
530,121,150,45.416666666666664,2.9530833333333333,0.75,43.416666666666664,45.416666666666664,0.0
531,121,180,45.416666666666664,2.7656666666666667,0.5833333333333334,50.916666666666664,45.416666666666664,0.0
532,122,0,92.0,2.1519166666666667,1.0,37.333333333333336,40.0,52.0
533,122,30,89.16666666666667,2.731083333333333,0.9166666666666666,46.0,40.0,49.16666666666667
534,122,60,83.08333333333333,2.435,0.9166666666666666,38.583333333333336,40.0,43.08333333333333
535,122,90,84.08333333333333,2.4551666666666665,1.0,39.583333333333336,40.0,44.08333333333333
536,122,120,72.33333333333333,2.224083333333333,0.8333333333333334,42.416666666666664,40.0,32.33333333333333
537,122,150,44.333333333333336,2.578,0.6666666666666666,46.583333333333336,40.0,4.333333333333336
538,122,180,40.0,2.7495833333333333,0.4166666666666667,40.0,40.0,0.0
539,123,0,95.25,2.0585833333333334,1.0,40.916666666666664,10.333333333333334,84.91666666666667
540,123,30,99.16666666666667,1.7236666666666667,1.0,55.5,10.333333333333334,88.83333333333334
541,123,60,96.25,2.1141666666666667,1.0,28.166666666666668,10.333333333333334,85.91666666666667
542,123,90,80.5,1.8833333333333335,1.0,37.166666666666664,10.333333333333334,70.16666666666667
543,123,120,37.583333333333336,1.7984166666666666,0.8333333333333334,49.5,10.333333333333334,27.25
544,123,150,13.833333333333334,2.6045000000000003,0.9166666666666666,43.166666666666664,10.333333333333334,3.5
545,123,180,10.333333333333334,3.0110833333333336,0.5833333333333334,36.083333333333336,10.333333333333334,0.0
546,125,0,100.0,3.0042500000000003,1.0,51.416666666666664,16.5,83.5
547,125,30,99.25,3.316333333333333,1.0,32.833333333333336,16.5,82.75
548,125,60,99.08333333333333,3.244666666666667,1.0,38.416666666666664,16.5,82.58333333333333
549,125,90,91.75,3.947833333333333,1.0,36.75,16.5,75.25
550,125,120,47.333333333333336,4.78375,0.9166666666666666,43.083333333333336,16.5,30.833333333333336
551,125,150,17.5,4.475416666666667,0.75,47.166666666666664,16.5,1.0
552,125,180,16.5,4.198083333333334,0.5833333333333334,40.833333333333336,16.5,0.0
553,127,0,91.16666666666667,3.51725,1.0,28.916666666666668,21.833333333333332,69.33333333333334
554,127,30,90.08333333333333,3.35875,1.0,47.833333333333336,21.833333333333332,68.25
555,127,60,82.16666666666667,3.6640833333333336,1.0,41.25,21.833333333333332,60.33333333333334
556,127,90,75.83333333333333,3.7015,1.0,34.166666666666664,21.833333333333332,54.0
557,127,120,48.833333333333336,3.7615833333333337,1.0,47.833333333333336,21.833333333333332,27.000000000000004
558,127,150,21.916666666666668,3.8024166666666663,0.5,46.5,21.833333333333332,0.0833333333333357
559,127,180,21.833333333333332,3.7129166666666666,0.6666666666666666,44.0,21.833333333333332,0.0
560,128,0,99.75,4.009666666666667,1.0,36.0,26.0,73.75
561,128,30,98.0,4.238583333333334,1.0,39.416666666666664,26.0,72.0
562,128,60,98.41666666666667,4.206833333333333,1.0,47.083333333333336,26.0,72.41666666666667
563,128,90,79.16666666666667,3.93525,1.0,49.833333333333336,26.0,53.16666666666667
564,128,120,33.416666666666664,4.880416666666666,0.9166666666666666,44.416666666666664,26.0,7.416666666666664
565,128,150,14.5,4.664000000000001,0.8333333333333334,29.5,26.0,-11.5
566,128,180,26.0,5.378666666666667,0.4166666666666667,44.25,26.0,0.0
567,129,0,71.75,3.1715,1.0,46.916666666666664,39.0,32.75
568,129,30,72.75,3.1206666666666667,1.0,47.833333333333336,39.0,33.75
569,129,60,67.33333333333333,3.4112500000000003,1.0,53.333333333333336,39.0,28.33333333333333
570,129,90,57.916666666666664,3.4705,1.0,39.25,39.0,18.916666666666664
571,129,120,47.583333333333336,3.7408333333333332,0.75,36.333333333333336,39.0,8.583333333333336
572,129,150,37.583333333333336,3.651,0.6666666666666666,29.666666666666668,39.0,-1.4166666666666643
573,129,180,39.0,3.7581666666666664,0.5833333333333334,37.166666666666664,39.0,0.0
574,130,0,94.41666666666667,5.570166666666666,1.0,47.166666666666664,46.416666666666664,48.00000000000001
575,130,30,91.0,5.362666666666667,0.9166666666666666,45.75,46.416666666666664,44.583333333333336
576,130,60,90.5,5.03,1.0,46.5,46.416666666666664,44.083333333333336
577,130,90,82.0,4.78225,1.0,39.166666666666664,46.416666666666664,35.583333333333336
578,130,120,66.66666666666667,4.590416666666667,1.0,45.083333333333336,46.416666666666664,20.250000000000007
579,130,150,27.083333333333332,5.1786666666666665,0.75,39.0,46.416666666666664,-19.333333333333332
580,130,180,46.416666666666664,5.350833333333333,0.5833333333333334,27.833333333333332,46.416666666666664,0.0
581,133,0,76.33333333333333,2.814083333333333,1.0,34.916666666666664,27.25,49.08333333333333
582,133,30,71.08333333333333,2.7314166666666666,1.0,34.583333333333336,27.25,43.83333333333333
583,133,60,64.58333333333333,2.7260833333333334,0.9166666666666666,47.916666666666664,27.25,37.33333333333333
584,133,90,57.833333333333336,2.9737500000000003,0.9166666666666666,54.833333333333336,27.25,30.583333333333336
585,133,120,39.75,3.0835833333333333,1.0,44.916666666666664,27.25,12.5
586,133,150,25.666666666666668,3.0500000000000003,0.75,38.5,27.25,-1.5833333333333321
587,133,180,27.25,2.753,0.6666666666666666,34.833333333333336,27.25,0.0
588,134,0,97.91666666666667,4.838583333333333,1.0,38.166666666666664,10.545454545454545,87.37121212121212
589,134,30,99.25,3.756083333333333,1.0,39.333333333333336,10.545454545454545,88.70454545454545
590,134,60,97.45454545454545,4.59675,0.9166666666666666,32.166666666666664,10.545454545454545,86.9090909090909
591,134,90,69.45454545454545,5.923583333333333,0.9166666666666666,42.416666666666664,10.545454545454545,58.90909090909091
592,134,120,21.333333333333332,4.569166666666667,0.9166666666666666,57.583333333333336,10.545454545454545,10.787878787878787
593,134,150,2.5,5.714333333333333,0.75,40.333333333333336,10.545454545454545,-8.045454545454545
594,134,180,10.545454545454545,5.7019166666666665,0.6666666666666666,40.5,10.545454545454545,0.0
595,135,0,92.33333333333333,2.8775,1.0,54.0,22.5,69.83333333333333
596,135,30,89.58333333333333,3.6035833333333334,1.0,47.0,22.5,67.08333333333333
597,135,60,85.5,4.351583333333333,1.0,40.583333333333336,22.5,63.0
598,135,90,67.0,3.5140833333333332,0.9166666666666666,31.333333333333332,22.5,44.5
599,135,120,33.25,3.5057500000000004,0.9166666666666666,43.333333333333336,22.5,10.75
600,135,150,16.0,3.8815000000000004,0.5,38.333333333333336,22.5,-6.5
601,135,180,22.5,3.218833333333333,0.5,35.916666666666664,22.5,0.0
602,137,0,87.91666666666667,4.832666666666666,1.0,30.25,41.833333333333336,46.083333333333336
603,137,30,82.83333333333333,4.9952499999999995,1.0,49.916666666666664,41.833333333333336,40.99999999999999
604,137,60,83.25,4.583333333333333,1.0,47.083333333333336,41.833333333333336,41.416666666666664
605,137,90,75.5,4.566833333333333,0.9166666666666666,37.666666666666664,41.833333333333336,33.666666666666664
606,137,120,48.916666666666664,4.8542499999999995,0.75,35.666666666666664,41.833333333333336,7.083333333333329
607,137,150,47.25,4.17925,0.8333333333333334,58.0,41.833333333333336,5.416666666666664
608,137,180,41.833333333333336,5.045583333333333,0.5833333333333334,31.916666666666668,41.833333333333336,0.0
609,138,0,87.91666666666667,3.169333333333334,0.9166666666666666,33.166666666666664,14.333333333333334,73.58333333333334
610,138,30,89.33333333333333,2.9125,1.0,53.5,14.333333333333334,75.0
611,138,60,81.58333333333333,2.986416666666667,1.0,40.583333333333336,14.333333333333334,67.25
612,138,90,63.333333333333336,2.9175,0.9166666666666666,39.666666666666664,14.333333333333334,49.0
613,138,120,32.916666666666664,3.2735833333333333,0.75,39.5,14.333333333333334,18.58333333333333
614,138,150,14.75,3.032833333333333,0.5833333333333334,37.0,14.333333333333334,0.4166666666666661
615,138,180,14.333333333333334,3.2574166666666664,0.5,47.083333333333336,14.333333333333334,0.0
616,143,0,77.58333333333333,2.245,1.0,34.25,37.583333333333336,39.99999999999999
617,143,30,77.0,3.003166666666667,1.0,38.166666666666664,37.583333333333336,39.416666666666664
618,143,60,66.08333333333333,2.9584166666666665,1.0,46.416666666666664,37.583333333333336,28.499999999999993
619,143,90,64.41666666666667,2.490083333333333,1.0,46.333333333333336,37.583333333333336,26.833333333333336
620,143,120,49.75,2.9218333333333333,0.9166666666666666,43.833333333333336,37.583333333333336,12.166666666666664
621,143,150,32.166666666666664,3.385,0.6666666666666666,33.583333333333336,37.583333333333336,-5.416666666666671
622,143,180,37.583333333333336,3.4163333333333337,0.5833333333333334,47.916666666666664,37.583333333333336,0.0
623,144,0,100.0,3.4249166666666664,1.0,42.916666666666664,16.666666666666668,83.33333333333333
624,144,30,100.0,3.416916666666667,1.0,46.916666666666664,16.666666666666668,83.33333333333333
625,144,60,99.91666666666667,3.42975,1.0,47.0,16.666666666666668,83.25
626,144,90,91.66666666666667,3.435,1.0,39.25,16.666666666666668,75.0
627,144,120,50.0,3.875083333333334,0.9166666666666666,32.833333333333336,16.666666666666668,33.33333333333333
628,144,150,16.75,3.812,0.75,46.416666666666664,16.666666666666668,0.08333333333333215
629,144,180,16.666666666666668,4.0245,0.75,35.166666666666664,16.666666666666668,0.0
630,145,0,77.45454545454545,4.92725,0.9166666666666666,48.416666666666664,24.833333333333332,52.621212121212125
631,145,30,81.08333333333333,4.3605,1.0,43.416666666666664,24.833333333333332,56.25
632,145,60,71.75,4.47075,0.75,42.75,24.833333333333332,46.91666666666667
633,145,90,53.166666666666664,4.606833333333333,0.6666666666666666,43.083333333333336,24.833333333333332,28.333333333333332
634,145,120,40.916666666666664,4.03125,0.5,43.833333333333336,24.833333333333332,16.083333333333332
635,145,150,23.75,4.226583333333333,0.3333333333333333,38.5,24.833333333333332,-1.0833333333333321
636,145,180,24.833333333333332,3.8296666666666668,0.6666666666666666,30.5,24.833333333333332,0.0
637,146,0,89.5,2.5949166666666668,0.9166666666666666,30.333333333333332,61.083333333333336,28.416666666666664
638,146,30,83.91666666666667,2.4205,0.9166666666666666,48.0,61.083333333333336,22.833333333333336
639,146,60,81.63636363636364,3.153583333333333,0.8333333333333334,48.75,61.083333333333336,20.553030303030305
640,146,90,68.41666666666667,2.5928333333333335,1.0,31.166666666666668,61.083333333333336,7.333333333333336
641,146,120,62.25,2.9934999999999996,0.8333333333333334,38.083333333333336,61.083333333333336,1.1666666666666643
642,146,150,55.5,2.6050833333333334,0.9166666666666666,51.583333333333336,61.083333333333336,-5.583333333333336
643,146,180,61.083333333333336,2.7385,0.5833333333333334,42.583333333333336,61.083333333333336,0.0
644,148,0,98.41666666666667,1.7610000000000001,1.0,49.833333333333336,3.75,94.66666666666667
645,148,30,99.16666666666667,1.5609166666666667,1.0,40.916666666666664,3.75,95.41666666666667
646,148,60,91.41666666666667,1.6151666666666669,0.9166666666666666,39.0,3.75,87.66666666666667
647,148,90,79.0,1.5989166666666668,1.0,43.833333333333336,3.75,75.25
648,148,120,51.0,1.9066666666666665,1.0,38.583333333333336,3.75,47.25
649,148,150,39.25,2.1470000000000002,0.75,42.75,3.75,35.5
650,148,180,3.75,2.2360833333333336,0.5,35.583333333333336,3.75,0.0
651,149,0,90.81818181818181,4.628583333333333,0.9166666666666666,41.5,50.166666666666664,40.65151515151515
652,149,30,90.25,3.8319166666666664,1.0,40.0,50.166666666666664,40.083333333333336
653,149,60,92.5,4.164916666666667,1.0,27.833333333333332,50.166666666666664,42.333333333333336
654,149,90,87.16666666666667,4.232333333333333,1.0,42.416666666666664,50.166666666666664,37.00000000000001
655,149,120,72.33333333333333,4.3545,1.0,53.5,50.166666666666664,22.166666666666664
656,149,150,30.75,4.801666666666667,0.8333333333333334,38.833333333333336,50.166666666666664,-19.416666666666664
657,149,180,50.166666666666664,4.544333333333333,0.75,46.416666666666664,50.166666666666664,0.0
658,150,0,88.72727272727273,4.959083333333333,0.9166666666666666,36.333333333333336,36.0,52.727272727272734
659,150,30,89.25,3.93275,1.0,38.666666666666664,36.0,53.25
660,150,60,77.25,4.051583333333333,1.0,43.0,36.0,41.25
661,150,90,68.16666666666667,4.605833333333334,0.9166666666666666,43.166666666666664,36.0,32.16666666666667
662,150,120,49.75,4.120833333333334,0.8333333333333334,49.666666666666664,36.0,13.75
663,150,150,27.916666666666668,5.0565,0.5,46.25,36.0,-8.083333333333332
664,150,180,36.0,4.318416666666667,0.5,33.416666666666664,36.0,0.0
665,151,0,93.25,3.0050000000000003,1.0,36.75,24.75,68.5
666,151,30,78.08333333333333,2.404916666666667,0.9166666666666666,56.0,24.75,53.33333333333333
667,151,60,72.83333333333333,2.7184166666666667,1.0,35.666666666666664,24.75,48.08333333333333
668,151,90,67.58333333333333,2.3698333333333332,1.0,40.916666666666664,24.75,42.83333333333333
669,151,120,38.583333333333336,2.58325,0.9166666666666666,37.916666666666664,24.75,13.833333333333336
670,151,150,23.583333333333332,2.698916666666667,0.8333333333333334,43.75,24.75,-1.1666666666666679
671,151,180,24.75,2.9723333333333333,0.5833333333333334,39.5,24.75,0.0
672,152,0,94.83333333333333,2.379166666666667,1.0,39.25,39.166666666666664,55.666666666666664
673,152,30,91.5,2.109083333333333,1.0,43.333333333333336,39.166666666666664,52.333333333333336
674,152,60,97.58333333333333,2.1355833333333334,1.0,40.5,39.166666666666664,58.416666666666664
675,152,90,89.0,2.1726666666666667,1.0,54.833333333333336,39.166666666666664,49.833333333333336
676,152,120,63.583333333333336,2.1801666666666666,0.8333333333333334,36.916666666666664,39.166666666666664,24.41666666666667
677,152,150,34.75,2.3189166666666665,0.6666666666666666,48.916666666666664,39.166666666666664,-4.416666666666664
678,152,180,39.166666666666664,2.782166666666667,0.6666666666666666,26.75,39.166666666666664,0.0
679,154,0,96.25,3.7597500000000004,1.0,41.166666666666664,41.416666666666664,54.833333333333336
680,154,30,94.75,3.6054999999999997,1.0,32.5,41.416666666666664,53.333333333333336
681,154,60,93.5,3.424583333333333,1.0,38.083333333333336,41.416666666666664,52.083333333333336
682,154,90,83.33333333333333,3.9483333333333337,1.0,50.166666666666664,41.416666666666664,41.916666666666664
683,154,120,58.0,3.7983333333333333,1.0,35.166666666666664,41.416666666666664,16.583333333333336
684,154,150,37.833333333333336,3.7264166666666667,0.8333333333333334,41.416666666666664,41.416666666666664,-3.5833333333333286
685,154,180,41.416666666666664,4.444083333333333,0.6666666666666666,52.0,41.416666666666664,0.0
686,158,0,99.91666666666667,2.7554166666666666,1.0,44.25,31.416666666666668,68.5
687,158,30,99.5,2.8041666666666667,1.0,51.083333333333336,31.416666666666668,68.08333333333333
688,158,60,100.0,2.9723333333333333,1.0,49.416666666666664,31.416666666666668,68.58333333333333
689,158,90,95.33333333333333,3.310583333333333,1.0,40.25,31.416666666666668,63.91666666666666
690,158,120,56.416666666666664,3.1367499999999997,0.8333333333333334,41.833333333333336,31.416666666666668,24.999999999999996
691,158,150,45.833333333333336,3.4737500000000003,0.75,36.166666666666664,31.416666666666668,14.416666666666668
692,158,180,31.416666666666668,3.5712499999999996,0.3333333333333333,27.5,31.416666666666668,0.0
693,159,0,95.66666666666667,2.0539166666666664,1.0,44.916666666666664,14.0,81.66666666666667
694,159,30,99.41666666666667,2.0286666666666666,1.0,42.583333333333336,14.0,85.41666666666667
695,159,60,92.5,1.85325,1.0,48.25,14.0,78.5
696,159,90,73.66666666666667,2.1925,1.0,33.75,14.0,59.66666666666667
697,159,120,43.333333333333336,2.1015833333333336,0.9166666666666666,41.333333333333336,14.0,29.333333333333336
698,159,150,17.333333333333332,2.03725,0.9166666666666666,38.5,14.0,3.333333333333332
699,159,180,14.0,2.0974166666666667,0.6666666666666666,41.166666666666664,14.0,0.0
700,160,0,100.0,3.58,1.0,43.666666666666664,16.75,83.25
701,160,30,95.83333333333333,3.3831666666666664,1.0,50.0,16.75,79.08333333333333
702,160,60,100.0,3.6690833333333335,1.0,46.25,16.75,83.25
703,160,90,83.33333333333333,4.067,1.0,37.666666666666664,16.75,66.58333333333333
704,160,120,58.416666666666664,4.641916666666667,0.8333333333333334,29.166666666666668,16.75,41.666666666666664
705,160,150,16.666666666666668,4.512666666666667,0.5833333333333334,35.916666666666664,16.75,-0.08333333333333215
706,160,180,16.75,4.277,0.5833333333333334,47.833333333333336,16.75,0.0
707,161,0,82.75,3.497833333333334,1.0,33.666666666666664,14.333333333333334,68.41666666666667
708,161,30,79.91666666666667,3.012,1.0,34.25,14.333333333333334,65.58333333333334
709,161,60,72.08333333333333,2.8040833333333333,1.0,44.916666666666664,14.333333333333334,57.74999999999999
710,161,90,53.166666666666664,2.94725,0.9166666666666666,44.416666666666664,14.333333333333334,38.83333333333333
711,161,120,29.333333333333332,3.9501666666666666,0.5833333333333334,49.25,14.333333333333334,14.999999999999998
712,161,150,7.75,3.1286666666666663,0.5,33.416666666666664,14.333333333333334,-6.583333333333334
713,161,180,14.333333333333334,3.1415,0.5833333333333334,50.583333333333336,14.333333333333334,0.0
714,162,0,90.16666666666667,3.6165833333333333,0.8333333333333334,45.333333333333336,8.833333333333334,81.33333333333334
715,162,30,86.91666666666667,3.239166666666667,1.0,46.75,8.833333333333334,78.08333333333334
716,162,60,74.5,3.30625,1.0,38.416666666666664,8.833333333333334,65.66666666666667
717,162,90,59.833333333333336,3.1904166666666662,1.0,47.333333333333336,8.833333333333334,51.0
718,162,120,31.916666666666668,4.23825,0.75,35.583333333333336,8.833333333333334,23.083333333333336
719,162,150,14.166666666666666,3.5420833333333337,0.5,36.5,8.833333333333334,5.333333333333332
720,162,180,8.833333333333334,3.8517500000000005,0.75,40.583333333333336,8.833333333333334,0.0
721,163,0,79.16666666666667,2.6808333333333336,1.0,40.333333333333336,28.166666666666668,51.0
722,163,30,75.75,2.746,1.0,44.0,28.166666666666668,47.58333333333333
723,163,60,71.66666666666667,2.8974166666666665,1.0,39.166666666666664,28.166666666666668,43.5
724,163,90,67.16666666666667,2.6514166666666665,1.0,43.166666666666664,28.166666666666668,39.0
725,163,120,42.0,2.3503333333333334,0.9166666666666666,48.583333333333336,28.166666666666668,13.833333333333332
726,163,150,22.416666666666668,2.688416666666667,0.75,30.666666666666668,28.166666666666668,-5.75
727,163,180,28.166666666666668,2.4379166666666667,0.8333333333333334,44.583333333333336,28.166666666666668,0.0
728,165,0,78.83333333333333,2.5143333333333335,1.0,39.083333333333336,34.666666666666664,44.166666666666664
729,165,30,89.08333333333333,2.8653333333333335,1.0,34.416666666666664,34.666666666666664,54.416666666666664
730,165,60,82.33333333333333,2.7600833333333337,1.0,34.333333333333336,34.666666666666664,47.666666666666664
731,165,90,58.25,2.684833333333333,1.0,40.416666666666664,34.666666666666664,23.583333333333336
732,165,120,43.333333333333336,2.7282499999999996,0.9166666666666666,49.916666666666664,34.666666666666664,8.666666666666671
733,165,150,38.666666666666664,3.04325,0.6666666666666666,38.0,34.666666666666664,4.0
734,165,180,34.666666666666664,3.0692500000000003,0.75,54.333333333333336,34.666666666666664,0.0
735,166,0,94.5,1.8073333333333332,1.0,48.166666666666664,26.0,68.5
736,166,30,89.16666666666667,1.7919166666666666,1.0,39.583333333333336,26.0,63.16666666666667
737,166,60,78.08333333333333,1.8715833333333334,1.0,40.75,26.0,52.08333333333333
738,166,90,57.75,2.225166666666667,0.8333333333333334,36.75,26.0,31.75
739,166,120,46.583333333333336,1.86425,0.9166666666666666,51.5,26.0,20.583333333333336
740,166,150,20.75,2.139583333333333,0.6666666666666666,38.166666666666664,26.0,-5.25
741,166,180,26.0,2.371916666666667,0.6666666666666666,35.583333333333336,26.0,0.0
742,167,0,100.0,2.3900833333333336,1.0,49.166666666666664,54.916666666666664,45.083333333333336
743,167,30,99.91666666666667,2.5119166666666666,1.0,45.083333333333336,54.916666666666664,45.00000000000001
744,167,60,98.91666666666667,2.6271666666666667,1.0,37.0,54.916666666666664,44.00000000000001
745,167,90,93.83333333333333,2.8013333333333335,1.0,36.833333333333336,54.916666666666664,38.916666666666664
746,167,120,70.58333333333333,3.01825,0.9166666666666666,36.666666666666664,54.916666666666664,15.666666666666664
747,167,150,32.75,3.37675,1.0,45.916666666666664,54.916666666666664,-22.166666666666664
748,167,180,54.916666666666664,3.390083333333333,0.75,39.833333333333336,54.916666666666664,0.0
749,170,0,94.75,2.6789166666666664,1.0,44.0,66.33333333333333,28.41666666666667
750,170,30,92.83333333333333,2.6300833333333333,0.9166666666666666,43.416666666666664,66.33333333333333,26.5
751,170,60,94.08333333333333,2.353666666666667,0.9166666666666666,46.416666666666664,66.33333333333333,27.75
752,170,90,90.91666666666667,2.275333333333333,1.0,43.916666666666664,66.33333333333333,24.583333333333343
753,170,120,78.16666666666667,2.8015000000000003,0.9166666666666666,41.0,66.33333333333333,11.833333333333343
754,170,150,58.5,2.7744999999999997,0.8333333333333334,37.0,66.33333333333333,-7.833333333333329
755,170,180,66.33333333333333,2.8007500000000003,0.75,34.75,66.33333333333333,0.0
756,172,0,90.66666666666667,2.43775,1.0,58.0,11.333333333333334,79.33333333333334
757,172,30,91.41666666666667,2.5613333333333332,1.0,34.75,11.333333333333334,80.08333333333334
758,172,60,82.58333333333333,2.5450833333333334,1.0,32.25,11.333333333333334,71.25
759,172,90,55.0,2.590333333333333,0.9166666666666666,39.5,11.333333333333334,43.666666666666664
760,172,120,34.333333333333336,2.8593333333333333,0.6666666666666666,26.0,11.333333333333334,23.0
761,172,150,14.416666666666666,2.40475,0.75,47.916666666666664,11.333333333333334,3.083333333333332
762,172,180,11.333333333333334,2.6370833333333334,0.5833333333333334,52.083333333333336,11.333333333333334,0.0
763,173,0,90.08333333333333,2.8135833333333333,1.0,50.166666666666664,19.666666666666668,70.41666666666666
764,173,30,86.33333333333333,2.826,1.0,38.833333333333336,19.666666666666668,66.66666666666666
765,173,60,77.25,2.7060833333333334,1.0,42.25,19.666666666666668,57.58333333333333
766,173,90,70.25,2.7494166666666664,1.0,44.916666666666664,19.666666666666668,50.58333333333333
767,173,120,40.166666666666664,3.41475,0.6666666666666666,35.083333333333336,19.666666666666668,20.499999999999996
768,173,150,20.833333333333332,3.2296666666666667,0.3333333333333333,34.916666666666664,19.666666666666668,1.1666666666666643
769,173,180,19.666666666666668,3.0540833333333333,0.5833333333333334,44.333333333333336,19.666666666666668,0.0
770,175,0,87.25,2.936916666666667,1.0,32.916666666666664,36.833333333333336,50.416666666666664
771,175,30,86.45454545454545,3.5941666666666663,0.9166666666666666,33.583333333333336,36.833333333333336,49.62121212121212
772,175,60,89.0,3.0530000000000004,1.0,53.583333333333336,36.833333333333336,52.166666666666664
773,175,90,83.33333333333333,3.3785000000000003,0.9166666666666666,42.0,36.833333333333336,46.49999999999999
774,175,120,71.5,3.4263333333333335,0.8333333333333334,48.083333333333336,36.833333333333336,34.666666666666664
775,175,150,23.181818181818183,4.4543333333333335,0.75,31.083333333333332,36.833333333333336,-13.651515151515152
776,175,180,36.833333333333336,3.3722499999999997,0.8333333333333334,49.25,36.833333333333336,0.0
777,176,0,94.91666666666667,2.4408333333333334,1.0,37.916666666666664,40.916666666666664,54.00000000000001
778,176,30,95.58333333333333,2.3313333333333333,1.0,39.833333333333336,40.916666666666664,54.666666666666664
779,176,60,94.5,2.47725,1.0,47.5,40.916666666666664,53.583333333333336
780,176,90,95.66666666666667,2.5105,1.0,39.333333333333336,40.916666666666664,54.75000000000001
781,176,120,63.25,2.6656666666666666,0.75,42.166666666666664,40.916666666666664,22.333333333333336
782,176,150,32.666666666666664,2.7355,0.5833333333333334,41.5,40.916666666666664,-8.25
783,176,180,40.916666666666664,3.031083333333333,0.5,42.25,40.916666666666664,0.0
784,177,0,97.75,3.31875,1.0,39.583333333333336,11.083333333333334,86.66666666666667
785,177,30,94.16666666666667,3.567083333333333,0.9166666666666666,44.833333333333336,11.083333333333334,83.08333333333334
786,177,60,89.0909090909091,3.688333333333333,0.9166666666666666,38.25,11.083333333333334,78.00757575757576
787,177,90,75.83333333333333,3.9615833333333335,1.0,44.916666666666664,11.083333333333334,64.75
788,177,120,40.416666666666664,3.823166666666667,0.75,41.0,11.083333333333334,29.33333333333333
789,177,150,8.833333333333334,3.3540833333333335,0.6666666666666666,38.583333333333336,11.083333333333334,-2.25
790,177,180,11.083333333333334,3.5380833333333332,0.5833333333333334,43.333333333333336,11.083333333333334,0.0
791,178,0,94.41666666666667,2.74975,1.0,33.083333333333336,10.5,83.91666666666667
792,178,30,90.75,2.674916666666667,1.0,43.166666666666664,10.5,80.25
793,178,60,82.41666666666667,2.7717499999999995,0.9166666666666666,40.083333333333336,10.5,71.91666666666667
794,178,90,66.08333333333333,2.9155833333333336,1.0,44.0,10.5,55.58333333333333
795,178,120,25.083333333333332,3.109833333333333,0.9166666666666666,36.75,10.5,14.583333333333332
796,178,150,13.166666666666666,3.45725,0.6666666666666666,52.75,10.5,2.666666666666666
797,178,180,10.5,3.421416666666667,0.6666666666666666,40.666666666666664,10.5,0.0
798,179,0,91.58333333333333,3.0388333333333333,1.0,41.583333333333336,29.25,62.33333333333333
799,179,30,91.16666666666667,3.2655,1.0,43.916666666666664,29.25,61.91666666666667
800,179,60,86.0,3.281416666666667,1.0,42.0,29.25,56.75
801,179,90,75.58333333333333,3.528,1.0,38.333333333333336,29.25,46.33333333333333
802,179,120,50.583333333333336,3.077666666666667,1.0,41.833333333333336,29.25,21.333333333333336
803,179,150,30.0,3.360333333333333,0.8333333333333334,40.333333333333336,29.25,0.75
804,179,180,29.25,3.674666666666667,0.75,42.5,29.25,0.0
805,180,0,100.0,3.17075,1.0,33.75,18.416666666666668,81.58333333333333
806,180,30,91.33333333333333,3.407166666666667,1.0,26.166666666666668,18.416666666666668,72.91666666666666
807,180,60,92.41666666666667,3.300666666666667,1.0,36.666666666666664,18.416666666666668,74.0
808,180,90,81.08333333333333,3.56625,1.0,47.083333333333336,18.416666666666668,62.66666666666666
809,180,120,43.083333333333336,3.842916666666667,0.9166666666666666,47.666666666666664,18.416666666666668,24.666666666666668
810,180,150,26.5,4.172583333333333,0.8333333333333334,51.666666666666664,18.416666666666668,8.083333333333332
811,180,180,18.416666666666668,3.952083333333333,0.6666666666666666,47.5,18.416666666666668,0.0
812,181,0,93.66666666666667,2.261416666666667,1.0,47.583333333333336,31.333333333333332,62.33333333333334
813,181,30,92.25,2.2708333333333335,1.0,47.0,31.333333333333332,60.91666666666667
814,181,60,86.41666666666667,2.3866666666666667,1.0,33.916666666666664,31.333333333333332,55.08333333333334
815,181,90,70.33333333333333,2.4105833333333333,0.9166666666666666,30.75,31.333333333333332,39.0
816,181,120,52.416666666666664,2.9461666666666666,0.75,35.25,31.333333333333332,21.083333333333332
817,181,150,23.083333333333332,2.20825,0.6666666666666666,50.5,31.333333333333332,-8.25
818,181,180,31.333333333333332,2.3771666666666667,0.6666666666666666,45.5,31.333333333333332,0.0
819,182,0,100.0,3.362083333333333,1.0,40.916666666666664,5.909090909090909,94.0909090909091
820,182,30,98.5,3.3891666666666667,1.0,43.5,5.909090909090909,92.5909090909091
821,182,60,90.58333333333333,3.8385833333333337,0.9166666666666666,27.25,5.909090909090909,84.67424242424242
822,182,90,83.91666666666667,3.9280833333333334,0.9166666666666666,41.416666666666664,5.909090909090909,78.00757575757576
823,182,120,52.333333333333336,3.6459166666666665,0.8333333333333334,39.416666666666664,5.909090909090909,46.42424242424243
824,182,150,13.25,4.10375,0.5833333333333334,52.583333333333336,5.909090909090909,7.340909090909091
825,182,180,5.909090909090909,4.414833333333333,0.5,45.416666666666664,5.909090909090909,0.0
826,183,0,91.0,2.359,1.0,38.75,52.083333333333336,38.916666666666664
827,183,30,92.75,2.5374166666666667,1.0,35.25,52.083333333333336,40.666666666666664
828,183,60,89.66666666666667,2.35075,1.0,49.833333333333336,52.083333333333336,37.583333333333336
829,183,90,84.58333333333333,2.5631666666666666,0.9166666666666666,37.833333333333336,52.083333333333336,32.49999999999999
830,183,120,60.583333333333336,2.5018333333333334,0.75,41.5,52.083333333333336,8.5
831,183,150,38.916666666666664,2.737916666666667,0.3333333333333333,51.916666666666664,52.083333333333336,-13.166666666666671
832,183,180,52.083333333333336,2.5135833333333335,0.5,35.416666666666664,52.083333333333336,0.0
833,184,0,98.66666666666667,3.7570833333333336,1.0,42.0,34.0,64.66666666666667
834,184,30,99.91666666666667,3.6924166666666665,1.0,46.75,34.0,65.91666666666667
835,184,60,95.0,3.67225,1.0,44.416666666666664,34.0,61.0
836,184,90,88.41666666666667,3.69275,0.9166666666666666,34.5,34.0,54.41666666666667
837,184,120,57.75,3.94825,0.75,32.166666666666664,34.0,23.75
838,184,150,17.0,4.851333333333334,0.6666666666666666,49.25,34.0,-17.0
839,184,180,34.0,4.047583333333333,0.5,41.416666666666664,34.0,0.0
840,185,0,80.83333333333333,3.0039166666666666,1.0,41.25,45.75,35.08333333333333
841,185,30,87.91666666666667,2.72025,0.9166666666666666,35.666666666666664,45.75,42.16666666666667
842,185,60,81.16666666666667,2.6839999999999997,1.0,56.583333333333336,45.75,35.41666666666667
843,185,90,69.91666666666667,2.9186666666666667,1.0,38.583333333333336,45.75,24.16666666666667
844,185,120,57.416666666666664,2.889416666666667,0.9166666666666666,42.5,45.75,11.666666666666664
845,185,150,33.25,3.2071666666666663,0.75,46.583333333333336,45.75,-12.5
846,185,180,45.75,3.4281666666666664,0.5,29.333333333333332,45.75,0.0
847,186,0,87.58333333333333,2.7306666666666666,1.0,30.916666666666668,44.083333333333336,43.49999999999999
848,186,30,82.66666666666667,2.64675,1.0,44.0,44.083333333333336,38.583333333333336
849,186,60,80.25,2.8565,1.0,40.833333333333336,44.083333333333336,36.166666666666664
850,186,90,76.33333333333333,3.0728333333333335,1.0,43.333333333333336,44.083333333333336,32.24999999999999
851,186,120,61.75,2.8870833333333334,0.9166666666666666,38.916666666666664,44.083333333333336,17.666666666666664
852,186,150,42.833333333333336,3.1639166666666667,0.8333333333333334,43.333333333333336,44.083333333333336,-1.25
853,186,180,44.083333333333336,3.341416666666667,0.75,49.166666666666664,44.083333333333336,0.0
854,189,0,99.91666666666667,1.9712500000000002,1.0,41.833333333333336,35.666666666666664,64.25
855,189,30,95.5,2.0980833333333333,1.0,39.75,35.666666666666664,59.833333333333336
856,189,60,92.08333333333333,1.8303333333333331,1.0,44.666666666666664,35.666666666666664,56.416666666666664
857,189,90,81.58333333333333,1.7685833333333332,1.0,42.25,35.666666666666664,45.916666666666664
858,189,120,55.0,2.075083333333333,1.0,42.0,35.666666666666664,19.333333333333336
859,189,150,37.833333333333336,2.2666666666666666,0.9166666666666666,37.666666666666664,35.666666666666664,2.1666666666666714
860,189,180,35.666666666666664,2.14925,0.6666666666666666,42.333333333333336,35.666666666666664,0.0
861,191,0,100.0,1.8998333333333335,1.0,49.916666666666664,7.5,92.5
862,191,30,99.5,2.3194166666666667,0.8333333333333334,36.5,7.5,92.0
863,191,60,98.75,1.9820833333333334,1.0,41.0,7.5,91.25
864,191,90,79.66666666666667,2.4163333333333337,1.0,29.0,7.5,72.16666666666667
865,191,120,30.5,2.2285,0.8333333333333334,49.833333333333336,7.5,23.0
866,191,150,16.0,2.6106666666666665,0.6666666666666666,39.416666666666664,7.5,8.5
867,191,180,7.5,2.26525,0.75,44.833333333333336,7.5,0.0
868,193,0,76.33333333333333,1.928,1.0,48.0,65.33333333333333,11.0
869,193,30,79.25,1.98275,1.0,36.666666666666664,65.33333333333333,13.916666666666671
870,193,60,78.91666666666667,1.8653333333333333,1.0,46.666666666666664,65.33333333333333,13.583333333333343
871,193,90,76.66666666666667,2.0211666666666663,1.0,51.0,65.33333333333333,11.333333333333343
872,193,120,74.5,2.144083333333333,0.9166666666666666,41.75,65.33333333333333,9.166666666666671
873,193,150,73.16666666666667,2.503833333333333,0.8333333333333334,36.916666666666664,65.33333333333333,7.833333333333343
874,193,180,65.33333333333333,2.4579166666666667,0.75,29.5,65.33333333333333,0.0
875,194,0,87.16666666666667,3.1696666666666666,1.0,42.166666666666664,46.166666666666664,41.00000000000001
876,194,30,85.0909090909091,4.018166666666667,0.9166666666666666,38.75,46.166666666666664,38.92424242424243
877,194,60,85.16666666666667,3.078583333333333,1.0,47.75,46.166666666666664,39.00000000000001
878,194,90,77.25,3.3493333333333335,0.9166666666666666,33.416666666666664,46.166666666666664,31.083333333333336
879,194,120,63.5,4.025083333333334,0.75,36.75,46.166666666666664,17.333333333333336
880,194,150,31.833333333333332,3.377166666666666,0.9166666666666666,42.5,46.166666666666664,-14.333333333333332
881,194,180,46.166666666666664,3.6222499999999997,0.6666666666666666,49.166666666666664,46.166666666666664,0.0
882,195,0,100.0,3.1437500000000003,1.0,43.25,26.90909090909091,73.0909090909091
883,195,30,100.0,3.7367500000000002,1.0,41.333333333333336,26.90909090909091,73.0909090909091
884,195,60,100.0,3.2205,1.0,40.0,26.90909090909091,73.0909090909091
885,195,90,94.08333333333333,4.235166666666667,1.0,46.833333333333336,26.90909090909091,67.17424242424242
886,195,120,59.90909090909091,5.3254166666666665,0.9166666666666666,45.916666666666664,26.90909090909091,33.0
887,195,150,40.0,4.333666666666667,0.8333333333333334,48.416666666666664,26.90909090909091,13.09090909090909
888,195,180,26.90909090909091,5.056916666666667,0.5833333333333334,24.75,26.90909090909091,0.0
889,197,0,96.16666666666667,1.9197499999999998,1.0,41.333333333333336,22.583333333333332,73.58333333333334
890,197,30,95.0,1.7085833333333333,1.0,50.75,22.583333333333332,72.41666666666667
891,197,60,95.5,1.8435833333333334,1.0,33.583333333333336,22.583333333333332,72.91666666666667
892,197,90,85.16666666666667,1.7894166666666667,1.0,38.833333333333336,22.583333333333332,62.58333333333334
893,197,120,49.416666666666664,1.9938333333333331,0.8333333333333334,44.25,22.583333333333332,26.833333333333332
894,197,150,19.083333333333332,1.9875833333333333,0.5833333333333334,51.0,22.583333333333332,-3.5
895,197,180,22.583333333333332,2.1136666666666666,0.5,30.75,22.583333333333332,0.0
896,198,0,99.75,2.3525,1.0,41.416666666666664,24.25,75.5
897,198,30,100.0,2.2561666666666667,1.0,39.916666666666664,24.25,75.75
898,198,60,97.58333333333333,2.7583333333333333,1.0,36.916666666666664,24.25,73.33333333333333
899,198,90,83.58333333333333,2.3364166666666666,0.9166666666666666,46.583333333333336,24.25,59.33333333333333
900,198,120,49.583333333333336,2.779916666666667,0.9166666666666666,43.333333333333336,24.25,25.333333333333336
901,198,150,12.666666666666666,2.9875000000000003,0.5,46.083333333333336,24.25,-11.583333333333334
902,198,180,24.25,2.6780000000000004,0.3333333333333333,36.25,24.25,0.0
903,201,0,99.91666666666667,3.438083333333333,0.9166666666666666,34.25,38.583333333333336,61.333333333333336
904,201,30,99.66666666666667,3.27825,1.0,40.5,38.583333333333336,61.083333333333336
905,201,60,95.41666666666667,3.5180833333333332,1.0,55.166666666666664,38.583333333333336,56.833333333333336
906,201,90,84.08333333333333,3.5530833333333334,1.0,39.75,38.583333333333336,45.49999999999999
907,201,120,58.666666666666664,3.7295833333333337,1.0,42.083333333333336,38.583333333333336,20.08333333333333
908,201,150,29.416666666666668,4.10575,0.75,41.916666666666664,38.583333333333336,-9.166666666666668
909,201,180,38.583333333333336,4.153833333333333,0.5833333333333334,36.833333333333336,38.583333333333336,0.0
910,202,0,83.16666666666667,3.20675,0.8333333333333334,36.666666666666664,33.666666666666664,49.50000000000001
911,202,30,85.0,3.496166666666667,0.8333333333333334,37.25,33.666666666666664,51.333333333333336
912,202,60,72.75,2.6944166666666667,0.9166666666666666,55.083333333333336,33.666666666666664,39.083333333333336
913,202,90,59.916666666666664,3.2535000000000003,0.6666666666666666,42.0,33.666666666666664,26.25
914,202,120,46.18181818181818,3.6626666666666665,0.6666666666666666,41.25,33.666666666666664,12.515151515151516
915,202,150,21.416666666666668,3.4410000000000003,0.8333333333333334,36.0,33.666666666666664,-12.249999999999996
916,202,180,33.666666666666664,2.8776666666666664,0.5,42.25,33.666666666666664,0.0
917,203,0,96.83333333333333,3.2715833333333335,1.0,38.166666666666664,41.333333333333336,55.49999999999999
918,203,30,95.58333333333333,3.637,1.0,43.333333333333336,41.333333333333336,54.24999999999999
919,203,60,90.66666666666667,3.6390833333333332,1.0,56.583333333333336,41.333333333333336,49.333333333333336
920,203,90,77.63636363636364,3.766583333333333,0.8333333333333334,38.583333333333336,41.333333333333336,36.303030303030305
921,203,120,52.583333333333336,3.8080833333333337,1.0,31.5,41.333333333333336,11.25
922,203,150,34.833333333333336,3.814,0.8333333333333334,40.166666666666664,41.333333333333336,-6.5
923,203,180,41.333333333333336,3.6245,0.5833333333333334,42.166666666666664,41.333333333333336,0.0
924,205,0,93.5,2.826,1.0,42.25,16.25,77.25
925,205,30,86.75,2.76925,1.0,31.666666666666668,16.25,70.5
926,205,60,78.08333333333333,2.6504166666666666,1.0,34.166666666666664,16.25,61.83333333333333
927,205,90,66.16666666666667,2.7488333333333332,1.0,41.916666666666664,16.25,49.91666666666667
928,205,120,32.333333333333336,2.7771666666666666,0.8333333333333334,44.583333333333336,16.25,16.083333333333336
929,205,150,16.916666666666668,2.966833333333333,0.6666666666666666,51.916666666666664,16.25,0.6666666666666679
930,205,180,16.25,3.017583333333333,0.4166666666666667,44.0,16.25,0.0
931,206,0,93.08333333333333,3.2503333333333333,1.0,43.25,64.63636363636364,28.44696969696969
932,206,30,98.0,3.2590000000000003,0.8333333333333334,42.333333333333336,64.63636363636364,33.36363636363636
933,206,60,96.83333333333333,3.1145833333333335,0.9166666666666666,37.916666666666664,64.63636363636364,32.19696969696969
934,206,90,95.0,3.0541666666666667,1.0,37.666666666666664,64.63636363636364,30.36363636363636
935,206,120,79.33333333333333,3.2778333333333336,1.0,37.083333333333336,64.63636363636364,14.696969696969688
936,206,150,56.083333333333336,3.1792499999999997,0.8333333333333334,40.75,64.63636363636364,-8.553030303030305
937,206,180,64.63636363636364,3.8861666666666665,0.5,51.5,64.63636363636364,0.0
938,208,0,86.33333333333333,4.015416666666667,1.0,42.166666666666664,24.666666666666668,61.66666666666666
939,208,30,92.33333333333333,3.79475,1.0,29.916666666666668,24.666666666666668,67.66666666666666
940,208,60,85.25,3.6642500000000005,1.0,40.583333333333336,24.666666666666668,60.58333333333333
941,208,90,72.41666666666667,3.9836666666666667,0.9166666666666666,47.833333333333336,24.666666666666668,47.75
942,208,120,48.333333333333336,4.367916666666667,0.9166666666666666,46.5,24.666666666666668,23.666666666666668
943,208,150,21.416666666666668,4.72525,0.75,33.833333333333336,24.666666666666668,-3.25
944,208,180,24.666666666666668,4.75675,0.5,49.666666666666664,24.666666666666668,0.0
945,209,0,93.25,1.6299166666666667,1.0,34.333333333333336,1.8333333333333333,91.41666666666667
946,209,30,90.75,1.6953333333333334,1.0,28.25,1.8333333333333333,88.91666666666667
947,209,60,80.58333333333333,1.8159166666666666,1.0,43.416666666666664,1.8333333333333333,78.75
948,209,90,52.75,1.9986666666666668,0.8333333333333334,49.083333333333336,1.8333333333333333,50.916666666666664
949,209,120,22.916666666666668,1.7485833333333334,0.6666666666666666,44.25,1.8333333333333333,21.083333333333336
950,209,150,2.1666666666666665,1.6524166666666666,0.5833333333333334,43.583333333333336,1.8333333333333333,0.33333333333333326
951,209,180,1.8333333333333333,1.6446666666666667,0.5833333333333334,47.583333333333336,1.8333333333333333,0.0
952,211,0,88.33333333333333,2.7739999999999996,1.0,38.083333333333336,44.666666666666664,43.666666666666664
953,211,30,87.18181818181819,2.7488333333333332,0.9166666666666666,39.166666666666664,44.666666666666664,42.51515151515152
954,211,60,86.41666666666667,2.63775,1.0,47.083333333333336,44.666666666666664,41.75000000000001
955,211,90,79.58333333333333,3.0845000000000002,1.0,46.333333333333336,44.666666666666664,34.916666666666664
956,211,120,64.54545454545455,4.035666666666667,0.75,42.583333333333336,44.666666666666664,19.878787878787882
957,211,150,47.083333333333336,4.279083333333333,0.8333333333333334,35.083333333333336,44.666666666666664,2.4166666666666714
958,211,180,44.666666666666664,4.070333333333333,0.4166666666666667,42.166666666666664,44.666666666666664,0.0
959,212,0,96.33333333333333,2.5255,1.0,41.583333333333336,21.0,75.33333333333333
960,212,30,88.66666666666667,2.5548333333333333,1.0,44.083333333333336,21.0,67.66666666666667
961,212,60,72.16666666666667,2.940583333333333,1.0,32.416666666666664,21.0,51.16666666666667
962,212,90,63.25,3.2670833333333333,1.0,44.416666666666664,21.0,42.25
963,212,120,37.583333333333336,3.700416666666667,0.9166666666666666,46.833333333333336,21.0,16.583333333333336
964,212,150,20.5,3.76375,0.6666666666666666,39.0,21.0,-0.5
965,212,180,21.0,3.937583333333333,0.5833333333333334,42.166666666666664,21.0,0.0
966,213,0,94.58333333333333,4.017916666666667,1.0,37.25,35.666666666666664,58.916666666666664
967,213,30,96.16666666666667,3.9579166666666663,1.0,46.916666666666664,35.666666666666664,60.50000000000001
968,213,60,93.25,3.874083333333333,1.0,42.5,35.666666666666664,57.583333333333336
969,213,90,75.66666666666667,3.603666666666667,1.0,35.416666666666664,35.666666666666664,40.00000000000001
970,213,120,46.5,3.8226666666666667,1.0,51.416666666666664,35.666666666666664,10.833333333333336
971,213,150,35.333333333333336,4.423916666666667,0.9166666666666666,46.166666666666664,35.666666666666664,-0.3333333333333286
972,213,180,35.666666666666664,4.1425833333333335,0.5,30.833333333333332,35.666666666666664,0.0
973,215,0,85.33333333333333,3.5980833333333333,1.0,41.416666666666664,29.583333333333332,55.75
974,215,30,82.5,3.5839166666666666,0.9166666666666666,31.833333333333332,29.583333333333332,52.91666666666667
975,215,60,84.66666666666667,3.6815833333333337,1.0,43.416666666666664,29.583333333333332,55.08333333333334
976,215,90,78.5,3.537333333333333,0.9166666666666666,50.666666666666664,29.583333333333332,48.91666666666667
977,215,120,42.75,4.171916666666667,0.9166666666666666,34.5,29.583333333333332,13.166666666666668
978,215,150,28.5,3.49675,0.75,42.916666666666664,29.583333333333332,-1.0833333333333321
979,215,180,29.583333333333332,3.984,0.3333333333333333,45.75,29.583333333333332,0.0
980,216,0,70.16666666666667,3.4731666666666663,1.0,42.916666666666664,38.25,31.91666666666667
981,216,30,72.0,2.984916666666667,1.0,35.75,38.25,33.75
982,216,60,65.75,3.0214166666666666,1.0,38.916666666666664,38.25,27.5
983,216,90,61.916666666666664,3.5219166666666664,0.9166666666666666,37.666666666666664,38.25,23.666666666666664
984,216,120,55.666666666666664,2.954,0.9166666666666666,45.5,38.25,17.416666666666664
985,216,150,34.416666666666664,3.2910833333333334,0.9166666666666666,40.166666666666664,38.25,-3.8333333333333357
986,216,180,38.25,3.0934166666666667,0.6666666666666666,49.583333333333336,38.25,0.0
987,217,0,100.0,3.1635833333333334,1.0,43.916666666666664,74.91666666666667,25.08333333333333
988,217,30,100.0,3.2738333333333336,1.0,47.333333333333336,74.91666666666667,25.08333333333333
989,217,60,99.83333333333333,3.1105,1.0,26.0,74.91666666666667,24.916666666666657
990,217,90,99.91666666666667,3.0409166666666665,1.0,51.083333333333336,74.91666666666667,25.0
991,217,120,83.66666666666667,3.0745,1.0,45.666666666666664,74.91666666666667,8.75
992,217,150,49.916666666666664,3.4665,0.9166666666666666,41.833333333333336,74.91666666666667,-25.000000000000007
993,217,180,74.91666666666667,3.313416666666667,0.75,34.666666666666664,74.91666666666667,0.0
994,218,0,75.41666666666667,2.4181666666666666,1.0,39.666666666666664,42.90909090909091,32.507575757575765
995,218,30,80.83333333333333,2.8785000000000003,0.8333333333333334,41.833333333333336,42.90909090909091,37.92424242424242
996,218,60,74.66666666666667,2.7125,1.0,41.333333333333336,42.90909090909091,31.757575757575765
997,218,90,66.0,2.891083333333333,1.0,36.416666666666664,42.90909090909091,23.090909090909093
998,218,120,52.25,2.923083333333333,0.8333333333333334,54.833333333333336,42.90909090909091,9.340909090909093
999,218,150,37.0,3.5188333333333333,0.25,27.083333333333332,42.90909090909091,-5.9090909090909065
1000,218,180,42.90909090909091,3.520583333333333,0.75,49.333333333333336,42.90909090909091,0.0
1001,219,0,100.0,2.046333333333333,1.0,41.25,15.166666666666666,84.83333333333333
1002,219,30,100.0,2.075083333333333,1.0,47.166666666666664,15.166666666666666,84.83333333333333
1003,219,60,100.0,2.537916666666667,1.0,44.333333333333336,15.166666666666666,84.83333333333333
1004,219,90,80.83333333333333,2.374083333333333,0.9166666666666666,39.083333333333336,15.166666666666666,65.66666666666666
1005,219,120,22.916666666666668,2.50425,0.5833333333333334,34.5,15.166666666666666,7.750000000000002
1006,219,150,10.083333333333334,2.59125,0.4166666666666667,38.75,15.166666666666666,-5.083333333333332
1007,219,180,15.166666666666666,2.533333333333333,0.5,45.416666666666664,15.166666666666666,0.0
1008,220,0,97.83333333333333,3.1314166666666665,1.0,47.666666666666664,28.0,69.83333333333333
1009,220,30,97.16666666666667,3.2976666666666663,0.9166666666666666,46.083333333333336,28.0,69.16666666666667
1010,220,60,96.41666666666667,2.9431666666666665,1.0,37.666666666666664,28.0,68.41666666666667
1011,220,90,89.91666666666667,3.3205000000000005,0.9166666666666666,49.083333333333336,28.0,61.91666666666667
1012,220,120,68.41666666666667,3.6300000000000003,0.9166666666666666,32.583333333333336,28.0,40.41666666666667
1013,220,150,26.583333333333332,3.400166666666667,0.5833333333333334,40.25,28.0,-1.4166666666666679
1014,220,180,28.0,4.462666666666666,0.75,37.166666666666664,28.0,0.0
1015,221,0,91.75,2.6785,1.0,44.416666666666664,44.09090909090909,47.65909090909091
1016,221,30,86.41666666666667,2.714916666666667,1.0,36.333333333333336,44.09090909090909,42.32575757575758
1017,221,60,86.16666666666667,2.59875,1.0,54.333333333333336,44.09090909090909,42.07575757575758
1018,221,90,69.16666666666667,2.71575,1.0,45.583333333333336,44.09090909090909,25.075757575757578
1019,221,120,45.833333333333336,2.5905833333333335,1.0,44.083333333333336,44.09090909090909,1.7424242424242422
1020,221,150,37.0,2.9333333333333336,0.75,34.166666666666664,44.09090909090909,-7.0909090909090935
1021,221,180,44.09090909090909,3.613,0.6666666666666666,31.583333333333332,44.09090909090909,0.0
1022,222,0,96.16666666666667,2.088083333333333,1.0,42.5,28.083333333333332,68.08333333333334
1023,222,30,94.08333333333333,2.321833333333333,1.0,32.916666666666664,28.083333333333332,66.0
1024,222,60,88.25,2.17975,1.0,45.583333333333336,28.083333333333332,60.16666666666667
1025,222,90,76.75,2.103083333333333,1.0,32.0,28.083333333333332,48.66666666666667
1026,222,120,40.583333333333336,2.6185833333333335,0.8333333333333334,42.333333333333336,28.083333333333332,12.500000000000004
1027,222,150,30.083333333333332,2.2615833333333333,0.8333333333333334,47.75,28.083333333333332,2.0
1028,222,180,28.083333333333332,2.3248333333333333,0.4166666666666667,47.416666666666664,28.083333333333332,0.0
1029,223,0,99.08333333333333,3.4129166666666664,1.0,42.166666666666664,17.833333333333332,81.25
1030,223,30,99.08333333333333,3.15925,1.0,47.083333333333336,17.833333333333332,81.25
1031,223,60,91.83333333333333,3.1079166666666667,1.0,40.25,17.833333333333332,74.0
1032,223,90,77.08333333333333,2.888666666666667,1.0,52.416666666666664,17.833333333333332,59.25
1033,223,120,51.0,3.403333333333333,1.0,24.333333333333332,17.833333333333332,33.16666666666667
1034,223,150,16.333333333333332,3.5203333333333333,0.5833333333333334,47.25,17.833333333333332,-1.5
1035,223,180,17.833333333333332,3.442833333333333,0.5833333333333334,37.0,17.833333333333332,0.0
1036,224,0,99.83333333333333,2.96725,1.0,47.5,8.333333333333334,91.5
1037,224,30,99.75,2.920666666666667,1.0,39.5,8.333333333333334,91.41666666666667
1038,224,60,99.66666666666667,2.90725,1.0,31.916666666666668,8.333333333333334,91.33333333333334
1039,224,90,91.41666666666667,3.49775,1.0,44.583333333333336,8.333333333333334,83.08333333333334
1040,224,120,41.666666666666664,3.544083333333333,1.0,42.5,8.333333333333334,33.33333333333333
1041,224,150,20.916666666666668,4.248833333333333,0.4166666666666667,42.916666666666664,8.333333333333334,12.583333333333334
1042,224,180,8.333333333333334,3.5706666666666664,0.5833333333333334,41.583333333333336,8.333333333333334,0.0
1043,225,0,94.25,3.4769166666666664,0.9166666666666666,37.5,28.916666666666668,65.33333333333333
1044,225,30,90.5,3.3988333333333336,1.0,48.0,28.916666666666668,61.58333333333333
1045,225,60,87.66666666666667,3.7276666666666665,0.9166666666666666,50.333333333333336,28.916666666666668,58.75
1046,225,90,73.33333333333333,3.2253333333333334,1.0,40.833333333333336,28.916666666666668,44.41666666666666
1047,225,120,48.666666666666664,3.6705833333333335,0.8333333333333334,43.166666666666664,28.916666666666668,19.749999999999996
1048,225,150,28.454545454545453,4.68175,0.25,31.5,28.916666666666668,-0.4621212121212146
1049,225,180,28.916666666666668,4.189,0.5833333333333334,39.166666666666664,28.916666666666668,0.0
1050,226,0,98.5,3.9912499999999995,1.0,43.166666666666664,31.636363636363637,66.86363636363636
1051,226,30,99.33333333333333,3.9495833333333334,1.0,27.666666666666668,31.636363636363637,67.69696969696969
1052,226,60,98.75,4.5616666666666665,1.0,41.5,31.636363636363637,67.11363636363636
1053,226,90,88.08333333333333,4.431166666666667,1.0,40.666666666666664,31.636363636363637,56.44696969696969
1054,226,120,57.333333333333336,4.152083333333334,0.75,55.5,31.636363636363637,25.6969696969697
1055,226,150,36.083333333333336,5.935333333333333,0.5,41.5,31.636363636363637,4.446969696969699
1056,226,180,31.636363636363637,6.4991666666666665,0.75,40.5,31.636363636363637,0.0
1057,227,0,83.41666666666667,4.187166666666667,1.0,37.333333333333336,39.583333333333336,43.833333333333336
1058,227,30,79.18181818181819,5.522583333333333,0.8333333333333334,28.166666666666668,39.583333333333336,39.59848484848485
1059,227,60,68.58333333333333,4.2055,1.0,49.583333333333336,39.583333333333336,28.999999999999993
1060,227,90,71.91666666666667,3.833,0.9166666666666666,47.166666666666664,39.583333333333336,32.333333333333336
1061,227,120,57.54545454545455,5.36325,0.8333333333333334,41.583333333333336,39.583333333333336,17.96212121212121
1062,227,150,39.5,5.718833333333333,0.5833333333333334,39.833333333333336,39.583333333333336,-0.0833333333333357
1063,227,180,39.583333333333336,4.781416666666667,0.5833333333333334,46.833333333333336,39.583333333333336,0.0
1064,228,0,74.08333333333333,4.014166666666667,0.8333333333333334,35.916666666666664,11.833333333333334,62.24999999999999
1065,228,30,89.16666666666667,4.0,0.9166666666666666,37.5,11.833333333333334,77.33333333333334
1066,228,60,72.0,4.4345,0.8333333333333334,42.75,11.833333333333334,60.166666666666664
1067,228,90,35.583333333333336,4.384833333333333,0.75,44.083333333333336,11.833333333333334,23.75
1068,228,120,17.916666666666668,5.127,0.5,40.666666666666664,11.833333333333334,6.083333333333334
1069,228,150,0.08333333333333333,3.6802500000000005,0.5,40.0,11.833333333333334,-11.75
1070,228,180,11.833333333333334,4.496166666666666,0.3333333333333333,49.583333333333336,11.833333333333334,0.0
