,subID,subtlety,slider,RT,accuracy,trial_ind,rating180,diff_from_180,aq_social_skill,aq_attn_switch,aq_img,aq_attn_to_det,aq_comm,panas_pos,panas_neg,ffi_neuroticism,ffi_extraversion,ffi_openness,ffi_agreeableness,ffi_conscientiousness,ucla,friend_num,bias,amplitude
0,2,0,96.41666666666667,2.5809166666666665,1.0,37.416666666666664,19.916666666666668,76.5,10.0,16.0,7.0,24.0,13.0,22.0,2.0,24.0,32.0,36.0,44.0,46.0,40.0,2.0,0.1798388572324862,0.7267198615658356
1,2,30,90.25,2.5516666666666667,1.0,44.75,19.916666666666668,70.33333333333333,10.0,16.0,7.0,24.0,13.0,22.0,2.0,24.0,32.0,36.0,44.0,46.0,40.0,2.0,0.1798388572324862,0.7267198615658356
2,2,60,82.25,2.49875,1.0,48.083333333333336,19.916666666666668,62.33333333333333,10.0,16.0,7.0,24.0,13.0,22.0,2.0,24.0,32.0,36.0,44.0,46.0,40.0,2.0,0.1798388572324862,0.7267198615658356
3,2,90,67.0,2.4305,1.0,37.083333333333336,19.916666666666668,47.08333333333333,10.0,16.0,7.0,24.0,13.0,22.0,2.0,24.0,32.0,36.0,44.0,46.0,40.0,2.0,0.1798388572324862,0.7267198615658356
4,2,120,50.0,2.94375,1.0,40.25,19.916666666666668,30.083333333333332,10.0,16.0,7.0,24.0,13.0,22.0,2.0,24.0,32.0,36.0,44.0,46.0,40.0,2.0,0.1798388572324862,0.7267198615658356
5,2,150,21.166666666666668,2.970916666666667,0.8333333333333334,42.416666666666664,19.916666666666668,1.25,10.0,16.0,7.0,24.0,13.0,22.0,2.0,24.0,32.0,36.0,44.0,46.0,40.0,2.0,0.1798388572324862,0.7267198615658356
6,2,180,19.916666666666668,3.0132499999999998,0.5,40.5,19.916666666666668,0.0,10.0,16.0,7.0,24.0,13.0,22.0,2.0,24.0,32.0,36.0,44.0,46.0,40.0,2.0,0.1798388572324862,0.7267198615658356
7,4,0,82.5,4.627666666666667,0.9166666666666666,36.166666666666664,40.27272727272727,42.22727272727273,9.0,15.0,5.0,18.0,12.0,21.0,10.0,40.0,41.0,48.0,49.0,49.0,36.0,4.0,0.187093718601401,0.4397127468887665
8,4,30,78.5,4.742249999999999,1.0,27.25,40.27272727272727,38.22727272727273,9.0,15.0,5.0,18.0,12.0,21.0,10.0,40.0,41.0,48.0,49.0,49.0,36.0,4.0,0.187093718601401,0.4397127468887665
9,4,60,69.9090909090909,5.610833333333333,0.8333333333333334,45.916666666666664,40.27272727272727,29.636363636363633,9.0,15.0,5.0,18.0,12.0,21.0,10.0,40.0,41.0,48.0,49.0,49.0,36.0,4.0,0.187093718601401,0.4397127468887665
10,4,90,62.25,4.1314166666666665,1.0,49.916666666666664,40.27272727272727,21.977272727272727,9.0,15.0,5.0,18.0,12.0,21.0,10.0,40.0,41.0,48.0,49.0,49.0,36.0,4.0,0.187093718601401,0.4397127468887665
11,4,120,47.416666666666664,5.08475,0.9166666666666666,36.25,40.27272727272727,7.143939393939391,9.0,15.0,5.0,18.0,12.0,21.0,10.0,40.0,41.0,48.0,49.0,49.0,36.0,4.0,0.187093718601401,0.4397127468887665
12,4,150,36.09090909090909,5.221166666666666,0.6666666666666666,55.25,40.27272727272727,-4.18181818181818,9.0,15.0,5.0,18.0,12.0,21.0,10.0,40.0,41.0,48.0,49.0,49.0,36.0,4.0,0.187093718601401,0.4397127468887665
13,4,180,40.27272727272727,4.9424166666666665,0.4166666666666667,39.75,40.27272727272727,0.0,9.0,15.0,5.0,18.0,12.0,21.0,10.0,40.0,41.0,48.0,49.0,49.0,36.0,4.0,0.187093718601401,0.4397127468887665
14,5,0,86.41666666666667,3.0498333333333334,1.0,38.583333333333336,38.333333333333336,48.083333333333336,22.0,20.0,10.0,21.0,15.0,15.0,28.0,52.0,25.0,40.0,34.0,43.0,71.0,1.0,0.24787514620701,0.4763069317192652
15,5,30,84.41666666666667,2.997,1.0,39.25,38.333333333333336,46.083333333333336,22.0,20.0,10.0,21.0,15.0,15.0,28.0,52.0,25.0,40.0,34.0,43.0,71.0,1.0,0.24787514620701,0.4763069317192652
16,5,60,80.08333333333333,3.5909999999999997,1.0,33.75,38.333333333333336,41.74999999999999,22.0,20.0,10.0,21.0,15.0,15.0,28.0,52.0,25.0,40.0,34.0,43.0,71.0,1.0,0.24787514620701,0.4763069317192652
17,5,90,63.5,2.8664166666666664,0.75,51.75,38.333333333333336,25.166666666666664,22.0,20.0,10.0,21.0,15.0,15.0,28.0,52.0,25.0,40.0,34.0,43.0,71.0,1.0,0.24787514620701,0.4763069317192652
18,5,120,45.583333333333336,2.8804166666666666,0.6666666666666666,43.0,38.333333333333336,7.25,22.0,20.0,10.0,21.0,15.0,15.0,28.0,52.0,25.0,40.0,34.0,43.0,71.0,1.0,0.24787514620701,0.4763069317192652
19,5,150,39.75,2.73625,0.6666666666666666,53.833333333333336,38.333333333333336,1.4166666666666643,22.0,20.0,10.0,21.0,15.0,15.0,28.0,52.0,25.0,40.0,34.0,43.0,71.0,1.0,0.24787514620701,0.4763069317192652
20,5,180,38.333333333333336,2.8789166666666666,0.5,30.333333333333332,38.333333333333336,0.0,22.0,20.0,10.0,21.0,15.0,15.0,28.0,52.0,25.0,40.0,34.0,43.0,71.0,1.0,0.24787514620701,0.4763069317192652
21,6,0,75.91666666666667,3.4148333333333336,1.0,40.25,41.77777777777778,34.13888888888889,9.0,14.0,9.0,18.0,8.0,29.0,2.0,30.0,48.0,36.0,47.0,51.0,25.0,2.0,0.1795981600827416,0.3267533983759351
22,6,30,70.75,3.29625,1.0,37.666666666666664,41.77777777777778,28.97222222222222,9.0,14.0,9.0,18.0,8.0,29.0,2.0,30.0,48.0,36.0,47.0,51.0,25.0,2.0,0.1795981600827416,0.3267533983759351
23,6,60,71.0,3.1606666666666663,1.0,49.833333333333336,41.77777777777778,29.22222222222222,9.0,14.0,9.0,18.0,8.0,29.0,2.0,30.0,48.0,36.0,47.0,51.0,25.0,2.0,0.1795981600827416,0.3267533983759351
24,6,90,60.166666666666664,3.2129166666666666,1.0,44.916666666666664,41.77777777777778,18.388888888888886,9.0,14.0,9.0,18.0,8.0,29.0,2.0,30.0,48.0,36.0,47.0,51.0,25.0,2.0,0.1795981600827416,0.3267533983759351
25,6,120,50.833333333333336,3.4568333333333334,0.8333333333333334,47.083333333333336,41.77777777777778,9.055555555555557,9.0,14.0,9.0,18.0,8.0,29.0,2.0,30.0,48.0,36.0,47.0,51.0,25.0,2.0,0.1795981600827416,0.3267533983759351
26,6,150,43.916666666666664,3.624166666666667,0.75,43.583333333333336,41.77777777777778,2.1388888888888857,9.0,14.0,9.0,18.0,8.0,29.0,2.0,30.0,48.0,36.0,47.0,51.0,25.0,2.0,0.1795981600827416,0.3267533983759351
27,6,180,41.77777777777778,5.827083333333333,0.4166666666666667,27.166666666666668,41.77777777777778,0.0,9.0,14.0,9.0,18.0,8.0,29.0,2.0,30.0,48.0,36.0,47.0,51.0,25.0,2.0,0.1795981600827416,0.3267533983759351
28,7,0,93.16666666666667,1.9106666666666667,1.0,46.833333333333336,28.75,64.41666666666667,14.0,17.0,11.0,9.0,13.0,7.0,6.0,39.0,29.0,35.0,42.54545454545455,36.0,53.0,4.0,0.2194362521969899,0.6409416153642409
29,7,30,83.41666666666667,1.9565000000000001,0.9166666666666666,45.083333333333336,28.75,54.66666666666667,14.0,17.0,11.0,9.0,13.0,7.0,6.0,39.0,29.0,35.0,42.54545454545455,36.0,53.0,4.0,0.2194362521969899,0.6409416153642409
30,7,60,85.0,1.9886666666666668,1.0,38.083333333333336,28.75,56.25,14.0,17.0,11.0,9.0,13.0,7.0,6.0,39.0,29.0,35.0,42.54545454545455,36.0,53.0,4.0,0.2194362521969899,0.6409416153642409
31,7,90,64.75,2.204833333333333,0.8333333333333334,36.416666666666664,28.75,36.0,14.0,17.0,11.0,9.0,13.0,7.0,6.0,39.0,29.0,35.0,42.54545454545455,36.0,53.0,4.0,0.2194362521969899,0.6409416153642409
32,7,120,33.916666666666664,2.269416666666667,0.8333333333333334,47.416666666666664,28.75,5.166666666666664,14.0,17.0,11.0,9.0,13.0,7.0,6.0,39.0,29.0,35.0,42.54545454545455,36.0,53.0,4.0,0.2194362521969899,0.6409416153642409
33,7,150,29.166666666666668,2.08625,0.5833333333333334,39.083333333333336,28.75,0.41666666666666785,14.0,17.0,11.0,9.0,13.0,7.0,6.0,39.0,29.0,35.0,42.54545454545455,36.0,53.0,4.0,0.2194362521969899,0.6409416153642409
34,7,180,28.75,2.563833333333333,0.5833333333333334,37.583333333333336,28.75,0.0,14.0,17.0,11.0,9.0,13.0,7.0,6.0,39.0,29.0,35.0,42.54545454545455,36.0,53.0,4.0,0.2194362521969899,0.6409416153642409
35,9,0,83.25,1.8185,1.0,46.666666666666664,10.25,73.0,27.0,18.0,10.0,11.0,21.0,19.0,3.0,30.0,29.0,44.0,37.0,48.0,62.0,2.0,-0.059828435698395,0.7125081200090025
36,9,30,80.83333333333333,1.9310833333333333,1.0,41.833333333333336,10.25,70.58333333333333,27.0,18.0,10.0,11.0,21.0,19.0,3.0,30.0,29.0,44.0,37.0,48.0,62.0,2.0,-0.059828435698395,0.7125081200090025
37,9,60,71.16666666666667,1.9736666666666667,1.0,43.833333333333336,10.25,60.91666666666667,27.0,18.0,10.0,11.0,21.0,19.0,3.0,30.0,29.0,44.0,37.0,48.0,62.0,2.0,-0.059828435698395,0.7125081200090025
38,9,90,53.416666666666664,2.2726666666666664,1.0,34.5,10.25,43.166666666666664,27.0,18.0,10.0,11.0,21.0,19.0,3.0,30.0,29.0,44.0,37.0,48.0,62.0,2.0,-0.059828435698395,0.7125081200090025
39,9,120,27.5,2.125166666666667,0.9166666666666666,44.5,10.25,17.25,27.0,18.0,10.0,11.0,21.0,19.0,3.0,30.0,29.0,44.0,37.0,48.0,62.0,2.0,-0.059828435698395,0.7125081200090025
40,9,150,13.916666666666666,2.1597500000000003,0.9166666666666666,39.083333333333336,10.25,3.666666666666666,27.0,18.0,10.0,11.0,21.0,19.0,3.0,30.0,29.0,44.0,37.0,48.0,62.0,2.0,-0.059828435698395,0.7125081200090025
41,9,180,10.25,2.5050833333333333,0.5833333333333334,40.083333333333336,10.25,0.0,27.0,18.0,10.0,11.0,21.0,19.0,3.0,30.0,29.0,44.0,37.0,48.0,62.0,2.0,-0.059828435698395,0.7125081200090025
42,10,0,97.16666666666667,3.60075,1.0,39.25,12.583333333333334,84.58333333333334,4.0,13.0,12.0,12.0,4.0,34.0,0.0,16.0,48.0,41.0,45.0,56.72727272727273,21.0,4.0,0.0340723378578632,0.9138568612192006
43,10,30,97.58333333333333,3.0088333333333335,1.0,44.25,12.583333333333334,85.0,4.0,13.0,12.0,12.0,4.0,34.0,0.0,16.0,48.0,41.0,45.0,56.72727272727273,21.0,4.0,0.0340723378578632,0.9138568612192006
44,10,60,82.41666666666667,4.299166666666666,0.8333333333333334,22.5,12.583333333333334,69.83333333333334,4.0,13.0,12.0,12.0,4.0,34.0,0.0,16.0,48.0,41.0,45.0,56.72727272727273,21.0,4.0,0.0340723378578632,0.9138568612192006
45,10,90,67.41666666666667,3.574583333333333,0.9166666666666666,47.666666666666664,12.583333333333334,54.833333333333336,4.0,13.0,12.0,12.0,4.0,34.0,0.0,16.0,48.0,41.0,45.0,56.72727272727273,21.0,4.0,0.0340723378578632,0.9138568612192006
46,10,120,21.166666666666668,3.590666666666667,0.6666666666666666,47.583333333333336,12.583333333333334,8.583333333333334,4.0,13.0,12.0,12.0,4.0,34.0,0.0,16.0,48.0,41.0,45.0,56.72727272727273,21.0,4.0,0.0340723378578632,0.9138568612192006
47,10,150,5.5,3.9465833333333333,0.3333333333333333,42.333333333333336,12.583333333333334,-7.083333333333334,4.0,13.0,12.0,12.0,4.0,34.0,0.0,16.0,48.0,41.0,45.0,56.72727272727273,21.0,4.0,0.0340723378578632,0.9138568612192006
48,10,180,12.583333333333334,3.7270833333333333,0.5833333333333334,46.916666666666664,12.583333333333334,0.0,4.0,13.0,12.0,12.0,4.0,34.0,0.0,16.0,48.0,41.0,45.0,56.72727272727273,21.0,4.0,0.0340723378578632,0.9138568612192006
49,12,0,100.0,2.024583333333333,1.0,36.0,24.25,75.75,28.0,29.0,15.0,20.0,24.0,13.0,34.0,60.0,16.0,36.0,34.0,29.0,67.0,1.0,0.2643845449676115,0.735571007426347
50,12,30,100.0,1.9829166666666669,1.0,59.083333333333336,24.25,75.75,28.0,29.0,15.0,20.0,24.0,13.0,34.0,60.0,16.0,36.0,34.0,29.0,67.0,1.0,0.2643845449676115,0.735571007426347
51,12,60,99.91666666666667,2.8251666666666666,1.0,41.5,24.25,75.66666666666667,28.0,29.0,15.0,20.0,24.0,13.0,34.0,60.0,16.0,36.0,34.0,29.0,67.0,1.0,0.2643845449676115,0.735571007426347
52,12,90,96.91666666666667,2.3831666666666664,1.0,33.916666666666664,24.25,72.66666666666667,28.0,29.0,15.0,20.0,24.0,13.0,34.0,60.0,16.0,36.0,34.0,29.0,67.0,1.0,0.2643845449676115,0.735571007426347
53,12,120,81.5,2.5496666666666665,1.0,37.083333333333336,24.25,57.25,28.0,29.0,15.0,20.0,24.0,13.0,34.0,60.0,16.0,36.0,34.0,29.0,67.0,1.0,0.2643845449676115,0.735571007426347
54,12,150,42.5,2.9114166666666663,1.0,48.0,24.25,18.25,28.0,29.0,15.0,20.0,24.0,13.0,34.0,60.0,16.0,36.0,34.0,29.0,67.0,1.0,0.2643845449676115,0.735571007426347
55,12,180,24.25,3.115,0.5833333333333334,34.916666666666664,24.25,0.0,28.0,29.0,15.0,20.0,24.0,13.0,34.0,60.0,16.0,36.0,34.0,29.0,67.0,1.0,0.2643845449676115,0.735571007426347
56,13,0,95.58333333333333,3.8355,1.0,43.0,34.0,61.58333333333333,11.0,25.0,2.0,15.0,15.0,24.0,6.0,45.0,27.272727272727277,44.0,35.0,29.0,44.0,3.0,0.1260953321002645,0.7744411787267771
57,13,30,94.91666666666667,4.47225,1.0,50.0,34.0,60.91666666666667,11.0,25.0,2.0,15.0,15.0,24.0,6.0,45.0,27.272727272727277,44.0,35.0,29.0,44.0,3.0,0.1260953321002645,0.7744411787267771
58,13,60,82.25,4.053083333333333,0.9166666666666666,29.833333333333332,34.0,48.25,11.0,25.0,2.0,15.0,15.0,24.0,6.0,45.0,27.272727272727277,44.0,35.0,29.0,44.0,3.0,0.1260953321002645,0.7744411787267771
59,13,90,73.27272727272727,3.924583333333333,0.8333333333333334,38.916666666666664,34.0,39.272727272727266,11.0,25.0,2.0,15.0,15.0,24.0,6.0,45.0,27.272727272727277,44.0,35.0,29.0,44.0,3.0,0.1260953321002645,0.7744411787267771
60,13,120,42.0,3.12525,0.9166666666666666,39.333333333333336,34.0,8.0,11.0,25.0,2.0,15.0,15.0,24.0,6.0,45.0,27.272727272727277,44.0,35.0,29.0,44.0,3.0,0.1260953321002645,0.7744411787267771
61,13,150,15.25,3.938,0.8333333333333334,42.416666666666664,34.0,-18.75,11.0,25.0,2.0,15.0,15.0,24.0,6.0,45.0,27.272727272727277,44.0,35.0,29.0,44.0,3.0,0.1260953321002645,0.7744411787267771
62,13,180,34.0,4.0151666666666666,0.5833333333333334,47.0,34.0,0.0,11.0,25.0,2.0,15.0,15.0,24.0,6.0,45.0,27.272727272727277,44.0,35.0,29.0,44.0,3.0,0.1260953321002645,0.7744411787267771
63,14,0,94.16666666666667,3.2444166666666665,1.0,37.666666666666664,8.666666666666666,85.5,5.0,7.0,3.0,22.0,1.0,33.0,0.0,41.0,48.0,48.0,48.0,60.0,61.0,2.0,0.0707663124713476,0.8835818527655397
64,14,30,97.83333333333333,3.293416666666667,1.0,39.75,8.666666666666666,89.16666666666666,5.0,7.0,3.0,22.0,1.0,33.0,0.0,41.0,48.0,48.0,48.0,60.0,61.0,2.0,0.0707663124713476,0.8835818527655397
65,14,60,95.08333333333333,3.157666666666667,1.0,40.25,8.666666666666666,86.41666666666666,5.0,7.0,3.0,22.0,1.0,33.0,0.0,41.0,48.0,48.0,48.0,60.0,61.0,2.0,0.0707663124713476,0.8835818527655397
66,14,90,71.0,3.3476666666666666,1.0,26.916666666666668,8.666666666666666,62.333333333333336,5.0,7.0,3.0,22.0,1.0,33.0,0.0,41.0,48.0,48.0,48.0,60.0,61.0,2.0,0.0707663124713476,0.8835818527655397
67,14,120,32.5,3.142916666666667,0.9166666666666666,43.333333333333336,8.666666666666666,23.833333333333336,5.0,7.0,3.0,22.0,1.0,33.0,0.0,41.0,48.0,48.0,48.0,60.0,61.0,2.0,0.0707663124713476,0.8835818527655397
68,14,150,14.25,3.4614166666666666,0.8333333333333334,46.5,8.666666666666666,5.583333333333334,5.0,7.0,3.0,22.0,1.0,33.0,0.0,41.0,48.0,48.0,48.0,60.0,61.0,2.0,0.0707663124713476,0.8835818527655397
69,14,180,8.666666666666666,3.3501666666666665,0.6666666666666666,56.083333333333336,8.666666666666666,0.0,5.0,7.0,3.0,22.0,1.0,33.0,0.0,41.0,48.0,48.0,48.0,60.0,61.0,2.0,0.0707663124713476,0.8835818527655397
70,15,0,82.25,6.5255,0.8333333333333334,43.666666666666664,67.41666666666667,14.833333333333329,14.0,16.0,12.0,23.0,15.0,19.0,16.0,41.0,35.0,37.0,36.0,45.0,64.0,2.0,0.3821750355146179,0.2163048851419969
71,15,30,74.25,5.8068333333333335,0.75,34.916666666666664,67.41666666666667,6.833333333333329,14.0,16.0,12.0,23.0,15.0,19.0,16.0,41.0,35.0,37.0,36.0,45.0,64.0,2.0,0.3821750355146179,0.2163048851419969
72,15,60,77.58333333333333,5.247083333333333,0.9166666666666666,43.416666666666664,67.41666666666667,10.166666666666657,14.0,16.0,12.0,23.0,15.0,19.0,16.0,41.0,35.0,37.0,36.0,45.0,64.0,2.0,0.3821750355146179,0.2163048851419969
73,15,90,74.5,5.318583333333334,0.75,39.833333333333336,67.41666666666667,7.083333333333329,14.0,16.0,12.0,23.0,15.0,19.0,16.0,41.0,35.0,37.0,36.0,45.0,64.0,2.0,0.3821750355146179,0.2163048851419969
74,15,120,68.45454545454545,5.782583333333334,0.75,37.416666666666664,67.41666666666667,1.0378787878787818,14.0,16.0,12.0,23.0,15.0,19.0,16.0,41.0,35.0,37.0,36.0,45.0,64.0,2.0,0.3821750355146179,0.2163048851419969
75,15,150,50.75,5.74025,0.6666666666666666,42.416666666666664,67.41666666666667,-16.66666666666667,14.0,16.0,12.0,23.0,15.0,19.0,16.0,41.0,35.0,37.0,36.0,45.0,64.0,2.0,0.3821750355146179,0.2163048851419969
76,15,180,67.41666666666667,5.668916666666667,0.5833333333333334,48.833333333333336,67.41666666666667,0.0,14.0,16.0,12.0,23.0,15.0,19.0,16.0,41.0,35.0,37.0,36.0,45.0,64.0,2.0,0.3821750355146179,0.2163048851419969
77,16,0,88.0,6.831833333333333,0.8333333333333334,57.0,27.666666666666668,60.33333333333333,16.666666666666668,17.0,9.0,14.0,10.0,31.0,0.0,39.0,40.0,33.0,40.36363636363637,51.0,36.0,8.0,0.1503108993603547,0.6055382578022017
78,16,30,83.91666666666667,5.9383333333333335,1.0,39.5,27.666666666666668,56.25,16.666666666666668,17.0,9.0,14.0,10.0,31.0,0.0,39.0,40.0,33.0,40.36363636363637,51.0,36.0,8.0,0.1503108993603547,0.6055382578022017
79,16,60,79.1,6.91275,0.75,25.666666666666668,27.666666666666668,51.43333333333332,16.666666666666668,17.0,9.0,14.0,10.0,31.0,0.0,39.0,40.0,33.0,40.36363636363637,51.0,36.0,8.0,0.1503108993603547,0.6055382578022017
80,16,90,71.45454545454545,6.391583333333333,0.8333333333333334,29.916666666666668,27.666666666666668,43.78787878787878,16.666666666666668,17.0,9.0,14.0,10.0,31.0,0.0,39.0,40.0,33.0,40.36363636363637,51.0,36.0,8.0,0.1503108993603547,0.6055382578022017
81,16,120,49.0,5.792583333333333,0.75,46.5,27.666666666666668,21.333333333333332,16.666666666666668,17.0,9.0,14.0,10.0,31.0,0.0,39.0,40.0,33.0,40.36363636363637,51.0,36.0,8.0,0.1503108993603547,0.6055382578022017
82,16,150,26.0,6.2115,0.6666666666666666,38.833333333333336,27.666666666666668,-1.6666666666666679,16.666666666666668,17.0,9.0,14.0,10.0,31.0,0.0,39.0,40.0,33.0,40.36363636363637,51.0,36.0,8.0,0.1503108993603547,0.6055382578022017
83,16,180,27.666666666666668,6.410583333333332,0.25,53.083333333333336,27.666666666666668,0.0,16.666666666666668,17.0,9.0,14.0,10.0,31.0,0.0,39.0,40.0,33.0,40.36363636363637,51.0,36.0,8.0,0.1503108993603547,0.6055382578022017
84,18,0,81.75,3.1910833333333333,1.0,52.75,22.833333333333332,58.91666666666667,10.0,14.0,7.0,7.0,6.0,16.0,2.0,22.0,39.0,33.0,43.0,45.0,25.0,3.0,0.0538138871042215,0.5743966267639284
85,18,30,73.5,3.376583333333333,0.9166666666666666,42.416666666666664,22.833333333333332,50.66666666666667,10.0,14.0,7.0,7.0,6.0,16.0,2.0,22.0,39.0,33.0,43.0,45.0,25.0,3.0,0.0538138871042215,0.5743966267639284
86,18,60,74.36363636363636,3.4292499999999997,0.9166666666666666,41.0,22.833333333333332,51.53030303030303,10.0,14.0,7.0,7.0,6.0,16.0,2.0,22.0,39.0,33.0,43.0,45.0,25.0,3.0,0.0538138871042215,0.5743966267639284
87,18,90,63.166666666666664,2.8690833333333337,1.0,32.083333333333336,22.833333333333332,40.33333333333333,10.0,14.0,7.0,7.0,6.0,16.0,2.0,22.0,39.0,33.0,43.0,45.0,25.0,3.0,0.0538138871042215,0.5743966267639284
88,18,120,39.75,3.1504999999999996,0.6666666666666666,51.666666666666664,22.833333333333332,16.916666666666668,10.0,14.0,7.0,7.0,6.0,16.0,2.0,22.0,39.0,33.0,43.0,45.0,25.0,3.0,0.0538138871042215,0.5743966267639284
89,18,150,25.333333333333332,2.953583333333333,0.75,35.916666666666664,22.833333333333332,2.5,10.0,14.0,7.0,7.0,6.0,16.0,2.0,22.0,39.0,33.0,43.0,45.0,25.0,3.0,0.0538138871042215,0.5743966267639284
90,18,180,22.833333333333332,3.4595000000000002,0.5,34.666666666666664,22.833333333333332,0.0,10.0,14.0,7.0,7.0,6.0,16.0,2.0,22.0,39.0,33.0,43.0,45.0,25.0,3.0,0.0538138871042215,0.5743966267639284
91,19,0,95.66666666666667,2.935416666666667,1.0,32.833333333333336,17.333333333333332,78.33333333333334,8.0,15.0,6.0,21.0,6.0,27.0,3.0,22.0,35.0,49.0,47.0,43.0,30.0,4.0,0.0912065223454574,0.8050075702442315
92,19,30,92.58333333333333,2.94375,1.0,40.166666666666664,17.333333333333332,75.25,8.0,15.0,6.0,21.0,6.0,27.0,3.0,22.0,35.0,49.0,47.0,43.0,30.0,4.0,0.0912065223454574,0.8050075702442315
93,19,60,82.58333333333333,2.89625,1.0,42.5,17.333333333333332,65.25,8.0,15.0,6.0,21.0,6.0,27.0,3.0,22.0,35.0,49.0,47.0,43.0,30.0,4.0,0.0912065223454574,0.8050075702442315
94,19,90,65.0,3.0305,1.0,49.75,17.333333333333332,47.66666666666667,8.0,15.0,6.0,21.0,6.0,27.0,3.0,22.0,35.0,49.0,47.0,43.0,30.0,4.0,0.0912065223454574,0.8050075702442315
95,19,120,46.75,3.4491666666666667,1.0,44.916666666666664,17.333333333333332,29.416666666666668,8.0,15.0,6.0,21.0,6.0,27.0,3.0,22.0,35.0,49.0,47.0,43.0,30.0,4.0,0.0912065223454574,0.8050075702442315
96,19,150,11.333333333333334,4.028333333333333,0.75,34.166666666666664,17.333333333333332,-5.999999999999998,8.0,15.0,6.0,21.0,6.0,27.0,3.0,22.0,35.0,49.0,47.0,43.0,30.0,4.0,0.0912065223454574,0.8050075702442315
97,19,180,17.333333333333332,3.2593333333333336,0.5,46.166666666666664,17.333333333333332,0.0,8.0,15.0,6.0,21.0,6.0,27.0,3.0,22.0,35.0,49.0,47.0,43.0,30.0,4.0,0.0912065223454574,0.8050075702442315
98,20,0,84.41666666666667,4.0215000000000005,0.9166666666666666,40.916666666666664,28.0,56.41666666666667,15.0,21.0,8.0,16.0,10.0,30.0,14.0,31.0,43.0,49.0,47.0,58.0,52.0,5.0,0.1296453078383315,0.5460047115310378
99,20,30,84.75,3.794583333333333,0.8333333333333334,39.0,28.0,56.75,15.0,21.0,8.0,16.0,10.0,30.0,14.0,31.0,43.0,49.0,47.0,58.0,52.0,5.0,0.1296453078383315,0.5460047115310378
100,20,60,67.58333333333333,4.06775,0.9166666666666666,44.666666666666664,28.0,39.58333333333333,15.0,21.0,8.0,16.0,10.0,30.0,14.0,31.0,43.0,49.0,47.0,58.0,52.0,5.0,0.1296453078383315,0.5460047115310378
101,20,90,61.81818181818182,4.499,0.75,44.75,28.0,33.81818181818182,15.0,21.0,8.0,16.0,10.0,30.0,14.0,31.0,43.0,49.0,47.0,58.0,52.0,5.0,0.1296453078383315,0.5460047115310378
102,20,120,41.083333333333336,4.3687499999999995,0.8333333333333334,46.083333333333336,28.0,13.083333333333336,15.0,21.0,8.0,16.0,10.0,30.0,14.0,31.0,43.0,49.0,47.0,58.0,52.0,5.0,0.1296453078383315,0.5460047115310378
103,20,150,28.666666666666668,4.263083333333333,0.4166666666666667,33.25,28.0,0.6666666666666679,15.0,21.0,8.0,16.0,10.0,30.0,14.0,31.0,43.0,49.0,47.0,58.0,52.0,5.0,0.1296453078383315,0.5460047115310378
104,20,180,28.0,4.75175,0.6666666666666666,41.833333333333336,28.0,0.0,15.0,21.0,8.0,16.0,10.0,30.0,14.0,31.0,43.0,49.0,47.0,58.0,52.0,5.0,0.1296453078383315,0.5460047115310378
105,21,0,97.58333333333333,2.9099166666666663,1.0,39.0,25.083333333333332,72.5,5.0,8.0,5.0,11.0,4.0,26.0,0.0,18.0,42.0,43.0,51.0,47.0,23.0,4.0,0.1586663086389395,0.7854996817902773
106,21,30,97.5,3.641583333333333,1.0,54.75,25.083333333333332,72.41666666666667,5.0,8.0,5.0,11.0,4.0,26.0,0.0,18.0,42.0,43.0,51.0,47.0,23.0,4.0,0.1586663086389395,0.7854996817902773
107,21,60,97.16666666666667,3.1313333333333335,1.0,47.833333333333336,25.083333333333332,72.08333333333334,5.0,8.0,5.0,11.0,4.0,26.0,0.0,18.0,42.0,43.0,51.0,47.0,23.0,4.0,0.1586663086389395,0.7854996817902773
108,21,90,58.5,3.4316666666666666,0.75,34.083333333333336,25.083333333333332,33.41666666666667,5.0,8.0,5.0,11.0,4.0,26.0,0.0,18.0,42.0,43.0,51.0,47.0,23.0,4.0,0.1586663086389395,0.7854996817902773
109,21,120,42.916666666666664,3.5227500000000003,0.6666666666666666,42.416666666666664,25.083333333333332,17.833333333333332,5.0,8.0,5.0,11.0,4.0,26.0,0.0,18.0,42.0,43.0,51.0,47.0,23.0,4.0,0.1586663086389395,0.7854996817902773
110,21,150,17.75,3.06475,0.5833333333333334,32.416666666666664,25.083333333333332,-7.333333333333332,5.0,8.0,5.0,11.0,4.0,26.0,0.0,18.0,42.0,43.0,51.0,47.0,23.0,4.0,0.1586663086389395,0.7854996817902773
111,21,180,25.083333333333332,3.637916666666667,0.4166666666666667,40.0,25.083333333333332,0.0,5.0,8.0,5.0,11.0,4.0,26.0,0.0,18.0,42.0,43.0,51.0,47.0,23.0,4.0,0.1586663086389395,0.7854996817902773
112,25,0,97.66666666666667,2.607083333333333,1.0,38.0,17.166666666666668,80.5,25.0,16.0,7.0,18.0,12.0,19.0,1.0,20.0,23.0,50.0,32.0,40.0,64.0,0.0,0.1607843068321129,0.7958782352342743
113,25,30,96.66666666666667,2.282,1.0,50.833333333333336,17.166666666666668,79.5,25.0,16.0,7.0,18.0,12.0,19.0,1.0,20.0,23.0,50.0,32.0,40.0,64.0,0.0,0.1607843068321129,0.7958782352342743
114,25,60,97.66666666666667,2.6145,1.0,31.0,17.166666666666668,80.5,25.0,16.0,7.0,18.0,12.0,19.0,1.0,20.0,23.0,50.0,32.0,40.0,64.0,0.0,0.1607843068321129,0.7958782352342743
115,25,90,97.83333333333333,2.519,1.0,48.666666666666664,17.166666666666668,80.66666666666666,25.0,16.0,7.0,18.0,12.0,19.0,1.0,20.0,23.0,50.0,32.0,40.0,64.0,0.0,0.1607843068321129,0.7958782352342743
116,25,120,81.91666666666667,2.6281666666666665,1.0,36.666666666666664,17.166666666666668,64.75,25.0,16.0,7.0,18.0,12.0,19.0,1.0,20.0,23.0,50.0,32.0,40.0,64.0,0.0,0.1607843068321129,0.7958782352342743
117,25,150,32.916666666666664,2.983083333333333,0.75,36.583333333333336,17.166666666666668,15.749999999999996,25.0,16.0,7.0,18.0,12.0,19.0,1.0,20.0,23.0,50.0,32.0,40.0,64.0,0.0,0.1607843068321129,0.7958782352342743
118,25,180,17.166666666666668,3.2118333333333333,0.75,48.75,17.166666666666668,0.0,25.0,16.0,7.0,18.0,12.0,19.0,1.0,20.0,23.0,50.0,32.0,40.0,64.0,0.0,0.1607843068321129,0.7958782352342743
119,26,0,98.25,3.78175,1.0,47.333333333333336,12.083333333333334,86.16666666666667,20.0,18.0,12.0,11.0,7.0,22.0,15.0,35.0,26.0,33.0,45.0,59.0,31.0,1.0,0.0937333544038591,0.8698974918431605
120,26,30,98.08333333333333,3.162333333333333,1.0,45.833333333333336,12.083333333333334,86.0,20.0,18.0,12.0,11.0,7.0,22.0,15.0,35.0,26.0,33.0,45.0,59.0,31.0,1.0,0.0937333544038591,0.8698974918431605
121,26,60,95.58333333333333,3.0635833333333333,1.0,37.0,12.083333333333334,83.5,20.0,18.0,12.0,11.0,7.0,22.0,15.0,35.0,26.0,33.0,45.0,59.0,31.0,1.0,0.0937333544038591,0.8698974918431605
122,26,90,77.25,3.018666666666667,1.0,47.583333333333336,12.083333333333334,65.16666666666667,20.0,18.0,12.0,11.0,7.0,22.0,15.0,35.0,26.0,33.0,45.0,59.0,31.0,1.0,0.0937333544038591,0.8698974918431605
123,26,120,45.583333333333336,3.2234166666666666,0.8333333333333334,41.25,12.083333333333334,33.5,20.0,18.0,12.0,11.0,7.0,22.0,15.0,35.0,26.0,33.0,45.0,59.0,31.0,1.0,0.0937333544038591,0.8698974918431605
124,26,150,10.181818181818182,3.83975,0.5,27.5,12.083333333333334,-1.9015151515151523,20.0,18.0,12.0,11.0,7.0,22.0,15.0,35.0,26.0,33.0,45.0,59.0,31.0,1.0,0.0937333544038591,0.8698974918431605
125,26,180,12.083333333333334,3.156833333333333,0.6666666666666666,44.0,12.083333333333334,0.0,20.0,18.0,12.0,11.0,7.0,22.0,15.0,35.0,26.0,33.0,45.0,59.0,31.0,1.0,0.0937333544038591,0.8698974918431605
126,27,0,94.5,3.4924999999999997,1.0,40.916666666666664,11.666666666666666,82.83333333333333,24.0,21.0,16.0,13.0,11.0,16.0,10.0,44.0,20.0,37.0,33.0,45.0,71.0,0.0,0.0951332909480381,0.8631140959412215
127,27,30,97.91666666666667,3.186916666666667,1.0,46.25,11.666666666666666,86.25,24.0,21.0,16.0,13.0,11.0,16.0,10.0,44.0,20.0,37.0,33.0,45.0,71.0,0.0,0.0951332909480381,0.8631140959412215
128,27,60,81.0,3.765333333333333,1.0,40.083333333333336,11.666666666666666,69.33333333333333,24.0,21.0,16.0,13.0,11.0,16.0,10.0,44.0,20.0,37.0,33.0,45.0,71.0,0.0,0.0951332909480381,0.8631140959412215
129,27,90,89.5,3.78125,1.0,48.833333333333336,11.666666666666666,77.83333333333333,24.0,21.0,16.0,13.0,11.0,16.0,10.0,44.0,20.0,37.0,33.0,45.0,71.0,0.0,0.0951332909480381,0.8631140959412215
130,27,120,41.81818181818182,4.499083333333333,0.5833333333333334,36.916666666666664,11.666666666666666,30.151515151515156,24.0,21.0,16.0,13.0,11.0,16.0,10.0,44.0,20.0,37.0,33.0,45.0,71.0,0.0,0.0951332909480381,0.8631140959412215
131,27,150,11.363636363636363,4.265,0.5,43.416666666666664,11.666666666666666,-0.30303030303030276,24.0,21.0,16.0,13.0,11.0,16.0,10.0,44.0,20.0,37.0,33.0,45.0,71.0,0.0,0.0951332909480381,0.8631140959412215
132,27,180,11.666666666666666,4.223833333333333,0.5833333333333334,34.083333333333336,11.666666666666666,0.0,24.0,21.0,16.0,13.0,11.0,16.0,10.0,44.0,20.0,37.0,33.0,45.0,71.0,0.0,0.0951332909480381,0.8631140959412215
133,28,0,91.25,1.9580833333333334,1.0,35.166666666666664,23.454545454545453,67.79545454545455,20.0,19.0,15.0,16.0,16.0,23.0,3.0,41.0,33.81818181818182,37.0,40.0,41.0,53.0,2.0,0.1507627650459557,0.6737171192681225
134,28,30,88.83333333333333,2.05425,1.0,42.0,23.454545454545453,65.37878787878788,20.0,19.0,15.0,16.0,16.0,23.0,3.0,41.0,33.81818181818182,37.0,40.0,41.0,53.0,2.0,0.1507627650459557,0.6737171192681225
135,28,60,85.83333333333333,2.3205,0.75,50.416666666666664,23.454545454545453,62.378787878787875,20.0,19.0,15.0,16.0,16.0,23.0,3.0,41.0,33.81818181818182,37.0,40.0,41.0,53.0,2.0,0.1507627650459557,0.6737171192681225
136,28,90,80.25,1.9669166666666669,1.0,47.25,23.454545454545453,56.79545454545455,20.0,19.0,15.0,16.0,16.0,23.0,3.0,41.0,33.81818181818182,37.0,40.0,41.0,53.0,2.0,0.1507627650459557,0.6737171192681225
137,28,120,41.75,2.3998333333333335,0.75,41.5,23.454545454545453,18.295454545454547,20.0,19.0,15.0,16.0,16.0,23.0,3.0,41.0,33.81818181818182,37.0,40.0,41.0,53.0,2.0,0.1507627650459557,0.6737171192681225
138,28,150,31.916666666666668,2.5054166666666666,0.5833333333333334,36.333333333333336,23.454545454545453,8.462121212121215,20.0,19.0,15.0,16.0,16.0,23.0,3.0,41.0,33.81818181818182,37.0,40.0,41.0,53.0,2.0,0.1507627650459557,0.6737171192681225
139,28,180,23.454545454545453,3.0056666666666665,0.5,37.833333333333336,23.454545454545453,0.0,20.0,19.0,15.0,16.0,16.0,23.0,3.0,41.0,33.81818181818182,37.0,40.0,41.0,53.0,2.0,0.1507627650459557,0.6737171192681225
140,29,0,95.91666666666667,3.87675,1.0,47.666666666666664,4.333333333333333,91.58333333333334,20.0,20.0,12.0,20.0,14.0,24.0,14.0,38.0,33.0,44.0,43.0,43.0,39.0,1.0,0.0095424183944353,0.9105899539009936
141,29,30,96.08333333333333,3.9431666666666665,1.0,43.0,4.333333333333333,91.75,20.0,20.0,12.0,20.0,14.0,24.0,14.0,38.0,33.0,44.0,43.0,43.0,39.0,1.0,0.0095424183944353,0.9105899539009936
142,29,60,91.45454545454545,4.6705,0.9166666666666666,42.25,4.333333333333333,87.12121212121212,20.0,20.0,12.0,20.0,14.0,24.0,14.0,38.0,33.0,44.0,43.0,43.0,39.0,1.0,0.0095424183944353,0.9105899539009936
143,29,90,75.63636363636364,5.359666666666667,0.8333333333333334,32.583333333333336,4.333333333333333,71.30303030303031,20.0,20.0,12.0,20.0,14.0,24.0,14.0,38.0,33.0,44.0,43.0,43.0,39.0,1.0,0.0095424183944353,0.9105899539009936
144,29,120,23.083333333333332,4.933833333333333,0.75,41.5,4.333333333333333,18.75,20.0,20.0,12.0,20.0,14.0,24.0,14.0,38.0,33.0,44.0,43.0,43.0,39.0,1.0,0.0095424183944353,0.9105899539009936
145,29,150,22.75,4.6045,0.75,33.0,4.333333333333333,18.416666666666668,20.0,20.0,12.0,20.0,14.0,24.0,14.0,38.0,33.0,44.0,43.0,43.0,39.0,1.0,0.0095424183944353,0.9105899539009936
146,29,180,4.333333333333333,5.303833333333333,0.6666666666666666,50.5,4.333333333333333,0.0,20.0,20.0,12.0,20.0,14.0,24.0,14.0,38.0,33.0,44.0,43.0,43.0,39.0,1.0,0.0095424183944353,0.9105899539009936
147,31,0,87.25,3.5595,1.0,35.416666666666664,41.416666666666664,45.833333333333336,19.0,17.0,22.0,25.0,18.0,6.0,10.0,46.0,31.0,35.0,37.0,42.0,64.0,5.0,0.13087086417465,0.5854687417930172
148,31,30,84.75,3.4559166666666665,1.0,47.333333333333336,41.416666666666664,43.333333333333336,19.0,17.0,22.0,25.0,18.0,6.0,10.0,46.0,31.0,35.0,37.0,42.0,64.0,5.0,0.13087086417465,0.5854687417930172
149,31,60,74.0,3.39125,1.0,47.0,41.416666666666664,32.583333333333336,19.0,17.0,22.0,25.0,18.0,6.0,10.0,46.0,31.0,35.0,37.0,42.0,64.0,5.0,0.13087086417465,0.5854687417930172
150,31,90,68.33333333333333,3.248416666666667,1.0,37.166666666666664,41.416666666666664,26.916666666666664,19.0,17.0,22.0,25.0,18.0,6.0,10.0,46.0,31.0,35.0,37.0,42.0,64.0,5.0,0.13087086417465,0.5854687417930172
151,31,120,54.583333333333336,3.57075,1.0,39.416666666666664,41.416666666666664,13.166666666666671,19.0,17.0,22.0,25.0,18.0,6.0,10.0,46.0,31.0,35.0,37.0,42.0,64.0,5.0,0.13087086417465,0.5854687417930172
152,31,150,21.25,3.4384166666666665,0.75,48.75,41.416666666666664,-20.166666666666664,19.0,17.0,22.0,25.0,18.0,6.0,10.0,46.0,31.0,35.0,37.0,42.0,64.0,5.0,0.13087086417465,0.5854687417930172
153,31,180,41.416666666666664,3.5584166666666666,0.5,35.416666666666664,41.416666666666664,0.0,19.0,17.0,22.0,25.0,18.0,6.0,10.0,46.0,31.0,35.0,37.0,42.0,64.0,5.0,0.13087086417465,0.5854687417930172
154,33,0,97.83333333333333,3.1193333333333335,1.0,36.166666666666664,19.416666666666668,78.41666666666666,19.0,20.0,9.0,10.0,15.0,30.0,3.0,30.0,41.0,45.0,46.0,59.0,52.0,3.0,0.1625339905739665,0.7941190596858322
155,33,30,96.91666666666667,2.717166666666667,1.0,29.666666666666668,19.416666666666668,77.5,19.0,20.0,9.0,10.0,15.0,30.0,3.0,30.0,41.0,45.0,46.0,59.0,52.0,3.0,0.1625339905739665,0.7941190596858322
156,33,60,89.66666666666667,3.0664166666666666,1.0,40.083333333333336,19.416666666666668,70.25,19.0,20.0,9.0,10.0,15.0,30.0,3.0,30.0,41.0,45.0,46.0,59.0,52.0,3.0,0.1625339905739665,0.7941190596858322
157,33,90,75.58333333333333,3.0188333333333333,1.0,36.0,19.416666666666668,56.16666666666666,19.0,20.0,9.0,10.0,15.0,30.0,3.0,30.0,41.0,45.0,46.0,59.0,52.0,3.0,0.1625339905739665,0.7941190596858322
158,33,120,22.083333333333332,3.7095833333333332,1.0,52.0,19.416666666666668,2.6666666666666643,19.0,20.0,9.0,10.0,15.0,30.0,3.0,30.0,41.0,45.0,46.0,59.0,52.0,3.0,0.1625339905739665,0.7941190596858322
159,33,150,18.416666666666668,3.68575,0.75,45.5,19.416666666666668,-1.0,19.0,20.0,9.0,10.0,15.0,30.0,3.0,30.0,41.0,45.0,46.0,59.0,52.0,3.0,0.1625339905739665,0.7941190596858322
160,33,180,19.416666666666668,3.845333333333333,0.6666666666666666,51.083333333333336,19.416666666666668,0.0,19.0,20.0,9.0,10.0,15.0,30.0,3.0,30.0,41.0,45.0,46.0,59.0,52.0,3.0,0.1625339905739665,0.7941190596858322
161,34,0,84.25,2.5103333333333335,1.0,46.916666666666664,56.166666666666664,28.083333333333336,7.0,11.0,8.0,13.0,6.0,30.0,5.0,28.0,48.0,43.0,47.0,44.0,28.5,10.0,0.1722514976055547,0.4869898115950786
162,34,30,82.41666666666667,2.4094166666666665,1.0,39.916666666666664,56.166666666666664,26.250000000000007,7.0,11.0,8.0,13.0,6.0,30.0,5.0,28.0,48.0,43.0,47.0,44.0,28.5,10.0,0.1722514976055547,0.4869898115950786
163,34,60,76.58333333333333,2.596833333333333,1.0,47.166666666666664,56.166666666666664,20.416666666666664,7.0,11.0,8.0,13.0,6.0,30.0,5.0,28.0,48.0,43.0,47.0,44.0,28.5,10.0,0.1722514976055547,0.4869898115950786
164,34,90,75.25,2.6489166666666666,0.9166666666666666,35.416666666666664,56.166666666666664,19.083333333333336,7.0,11.0,8.0,13.0,6.0,30.0,5.0,28.0,48.0,43.0,47.0,44.0,28.5,10.0,0.1722514976055547,0.4869898115950786
165,34,120,52.25,2.5010833333333333,1.0,34.416666666666664,56.166666666666664,-3.9166666666666643,7.0,11.0,8.0,13.0,6.0,30.0,5.0,28.0,48.0,43.0,47.0,44.0,28.5,10.0,0.1722514976055547,0.4869898115950786
166,34,150,26.75,3.405,0.75,42.666666666666664,56.166666666666664,-29.416666666666664,7.0,11.0,8.0,13.0,6.0,30.0,5.0,28.0,48.0,43.0,47.0,44.0,28.5,10.0,0.1722514976055547,0.4869898115950786
167,34,180,56.166666666666664,2.6775,0.5833333333333334,44.0,56.166666666666664,0.0,7.0,11.0,8.0,13.0,6.0,30.0,5.0,28.0,48.0,43.0,47.0,44.0,28.5,10.0,0.1722514976055547,0.4869898115950786
168,35,0,90.58333333333333,3.1200833333333335,1.0,47.083333333333336,15.916666666666666,74.66666666666666,14.0,14.0,13.0,17.0,12.0,29.0,5.0,27.0,39.0,41.0,42.0,48.0,50.0,5.0,0.1393899410849385,0.8189123714475001
169,35,30,97.91666666666667,3.1459166666666665,1.0,37.333333333333336,15.916666666666666,82.0,14.0,14.0,13.0,17.0,12.0,29.0,5.0,27.0,39.0,41.0,42.0,48.0,50.0,5.0,0.1393899410849385,0.8189123714475001
170,35,60,97.91666666666667,3.0111666666666665,1.0,35.5,15.916666666666666,82.0,14.0,14.0,13.0,17.0,12.0,29.0,5.0,27.0,39.0,41.0,42.0,48.0,50.0,5.0,0.1393899410849385,0.8189123714475001
171,35,90,90.83333333333333,2.9242500000000002,0.9166666666666666,49.416666666666664,15.916666666666666,74.91666666666666,14.0,14.0,13.0,17.0,12.0,29.0,5.0,27.0,39.0,41.0,42.0,48.0,50.0,5.0,0.1393899410849385,0.8189123714475001
172,35,120,39.75,3.3209166666666667,0.75,39.666666666666664,15.916666666666666,23.833333333333336,14.0,14.0,13.0,17.0,12.0,29.0,5.0,27.0,39.0,41.0,42.0,48.0,50.0,5.0,0.1393899410849385,0.8189123714475001
173,35,150,25.25,2.9576666666666664,0.8333333333333334,42.333333333333336,15.916666666666666,9.333333333333334,14.0,14.0,13.0,17.0,12.0,29.0,5.0,27.0,39.0,41.0,42.0,48.0,50.0,5.0,0.1393899410849385,0.8189123714475001
174,35,180,15.916666666666666,3.3064999999999998,0.5,39.166666666666664,15.916666666666666,0.0,14.0,14.0,13.0,17.0,12.0,29.0,5.0,27.0,39.0,41.0,42.0,48.0,50.0,5.0,0.1393899410849385,0.8189123714475001
175,37,0,100.0,2.0683333333333334,1.0,41.5,6.75,93.25,9.0,17.0,8.0,18.0,5.0,34.0,14.0,43.0,40.0,41.0,44.0,48.0,47.0,5.0,0.0676074432689132,0.9323819031311652
176,37,30,100.0,2.049916666666667,1.0,47.166666666666664,6.75,93.25,9.0,17.0,8.0,18.0,5.0,34.0,14.0,43.0,40.0,41.0,44.0,48.0,47.0,5.0,0.0676074432689132,0.9323819031311652
177,37,60,100.0,2.082666666666667,1.0,37.833333333333336,6.75,93.25,9.0,17.0,8.0,18.0,5.0,34.0,14.0,43.0,40.0,41.0,44.0,48.0,47.0,5.0,0.0676074432689132,0.9323819031311652
178,37,90,83.33333333333333,2.1658333333333335,1.0,33.25,6.75,76.58333333333333,9.0,17.0,8.0,18.0,5.0,34.0,14.0,43.0,40.0,41.0,44.0,48.0,47.0,5.0,0.0676074432689132,0.9323819031311652
179,37,120,17.916666666666668,2.00225,0.9166666666666666,36.416666666666664,6.75,11.166666666666668,9.0,17.0,8.0,18.0,5.0,34.0,14.0,43.0,40.0,41.0,44.0,48.0,47.0,5.0,0.0676074432689132,0.9323819031311652
180,37,150,8.333333333333334,2.029166666666667,0.9166666666666666,46.916666666666664,6.75,1.583333333333334,9.0,17.0,8.0,18.0,5.0,34.0,14.0,43.0,40.0,41.0,44.0,48.0,47.0,5.0,0.0676074432689132,0.9323819031311652
181,37,180,6.75,2.3061666666666665,0.5,47.416666666666664,6.75,0.0,9.0,17.0,8.0,18.0,5.0,34.0,14.0,43.0,40.0,41.0,44.0,48.0,47.0,5.0,0.0676074432689132,0.9323819031311652
182,41,0,87.5,3.6285833333333333,1.0,54.25,66.5,21.0,16.0,18.0,7.0,17.0,11.0,13.0,18.0,44.0,30.0,39.0,37.0,25.0,56.0,5.0,0.5145965251374045,0.2263251200984526
183,41,30,86.66666666666667,3.3067499999999996,1.0,29.416666666666668,66.5,20.16666666666667,16.0,18.0,7.0,17.0,11.0,13.0,18.0,44.0,30.0,39.0,37.0,25.0,56.0,5.0,0.5145965251374045,0.2263251200984526
184,41,60,84.75,3.43875,1.0,26.333333333333332,66.5,18.25,16.0,18.0,7.0,17.0,11.0,13.0,18.0,44.0,30.0,39.0,37.0,25.0,56.0,5.0,0.5145965251374045,0.2263251200984526
185,41,90,75.5,3.5684166666666663,1.0,51.25,66.5,9.0,16.0,18.0,7.0,17.0,11.0,13.0,18.0,44.0,30.0,39.0,37.0,25.0,56.0,5.0,0.5145965251374045,0.2263251200984526
186,41,120,74.83333333333333,3.750666666666667,0.9166666666666666,48.25,66.5,8.333333333333329,16.0,18.0,7.0,17.0,11.0,13.0,18.0,44.0,30.0,39.0,37.0,25.0,56.0,5.0,0.5145965251374045,0.2263251200984526
187,41,150,63.25,4.582999999999999,0.9166666666666666,44.666666666666664,66.5,-3.25,16.0,18.0,7.0,17.0,11.0,13.0,18.0,44.0,30.0,39.0,37.0,25.0,56.0,5.0,0.5145965251374045,0.2263251200984526
188,41,180,66.5,4.443666666666666,0.6666666666666666,36.333333333333336,66.5,0.0,16.0,18.0,7.0,17.0,11.0,13.0,18.0,44.0,30.0,39.0,37.0,25.0,56.0,5.0,0.5145965251374045,0.2263251200984526
189,42,0,96.0,3.7077500000000003,0.9166666666666666,31.75,3.5833333333333335,92.41666666666667,14.0,20.0,12.0,14.0,15.0,15.0,12.0,43.63636363636363,36.0,34.0,39.0,37.0,44.0,5.0,-0.0028303150838303,0.9187275115108166
190,42,30,95.91666666666667,3.2464999999999997,1.0,43.0,3.5833333333333335,92.33333333333334,14.0,20.0,12.0,14.0,15.0,15.0,12.0,43.63636363636363,36.0,34.0,39.0,37.0,44.0,5.0,-0.0028303150838303,0.9187275115108166
191,42,60,88.33333333333333,3.051833333333333,0.9166666666666666,44.083333333333336,3.5833333333333335,84.75,14.0,20.0,12.0,14.0,15.0,15.0,12.0,43.63636363636363,36.0,34.0,39.0,37.0,44.0,5.0,-0.0028303150838303,0.9187275115108166
192,42,90,54.0,3.33625,0.75,37.583333333333336,3.5833333333333335,50.416666666666664,14.0,20.0,12.0,14.0,15.0,15.0,12.0,43.63636363636363,36.0,34.0,39.0,37.0,44.0,5.0,-0.0028303150838303,0.9187275115108166
193,42,120,20.0,2.7914999999999996,0.6666666666666666,44.083333333333336,3.5833333333333335,16.416666666666668,14.0,20.0,12.0,14.0,15.0,15.0,12.0,43.63636363636363,36.0,34.0,39.0,37.0,44.0,5.0,-0.0028303150838303,0.9187275115108166
194,42,150,3.9166666666666665,3.43975,0.75,49.583333333333336,3.5833333333333335,0.33333333333333304,14.0,20.0,12.0,14.0,15.0,15.0,12.0,43.63636363636363,36.0,34.0,39.0,37.0,44.0,5.0,-0.0028303150838303,0.9187275115108166
195,42,180,3.5833333333333335,3.0661666666666663,0.5,40.416666666666664,3.5833333333333335,0.0,14.0,20.0,12.0,14.0,15.0,15.0,12.0,43.63636363636363,36.0,34.0,39.0,37.0,44.0,5.0,-0.0028303150838303,0.9187275115108166
196,43,0,83.41666666666667,3.62575,1.0,45.416666666666664,39.666666666666664,43.75000000000001,14.0,18.0,11.0,24.0,21.0,31.0,0.0,37.0,48.0,51.0,47.0,37.0,29.0,4.0,0.2735938934427236,0.36381143587781
197,43,30,78.33333333333333,3.2904166666666668,1.0,27.666666666666668,39.666666666666664,38.666666666666664,14.0,18.0,11.0,24.0,21.0,31.0,0.0,37.0,48.0,51.0,47.0,37.0,29.0,4.0,0.2735938934427236,0.36381143587781
198,43,60,70.58333333333333,3.230166666666667,0.9166666666666666,31.0,39.666666666666664,30.916666666666664,14.0,18.0,11.0,24.0,21.0,31.0,0.0,37.0,48.0,51.0,47.0,37.0,29.0,4.0,0.2735938934427236,0.36381143587781
199,43,90,69.36363636363636,4.175833333333333,0.75,44.25,39.666666666666664,29.696969696969695,14.0,18.0,11.0,24.0,21.0,31.0,0.0,37.0,48.0,51.0,47.0,37.0,29.0,4.0,0.2735938934427236,0.36381143587781
200,43,120,66.66666666666667,3.012,0.75,51.083333333333336,39.666666666666664,27.000000000000007,14.0,18.0,11.0,24.0,21.0,31.0,0.0,37.0,48.0,51.0,47.0,37.0,29.0,4.0,0.2735938934427236,0.36381143587781
201,43,150,50.083333333333336,3.0941666666666667,0.8333333333333334,46.583333333333336,39.666666666666664,10.416666666666671,14.0,18.0,11.0,24.0,21.0,31.0,0.0,37.0,48.0,51.0,47.0,37.0,29.0,4.0,0.2735938934427236,0.36381143587781
202,43,180,39.666666666666664,3.2225,0.6666666666666666,44.5,39.666666666666664,0.0,14.0,18.0,11.0,24.0,21.0,31.0,0.0,37.0,48.0,51.0,47.0,37.0,29.0,4.0,0.2735938934427236,0.36381143587781
203,44,0,82.25,1.8774166666666667,0.9166666666666666,50.583333333333336,21.75,60.5,14.0,15.0,9.0,22.0,10.0,17.0,4.0,52.0,38.0,44.0,40.0,46.0,47.0,6.0,0.1089324574155152,0.6644985172004566
204,44,30,88.83333333333333,1.6294166666666667,1.0,49.0,21.75,67.08333333333333,14.0,15.0,9.0,22.0,10.0,17.0,4.0,52.0,38.0,44.0,40.0,46.0,47.0,6.0,0.1089324574155152,0.6644985172004566
205,44,60,83.91666666666667,1.72875,1.0,44.416666666666664,21.75,62.16666666666667,14.0,15.0,9.0,22.0,10.0,17.0,4.0,52.0,38.0,44.0,40.0,46.0,47.0,6.0,0.1089324574155152,0.6644985172004566
206,44,90,68.25,1.7283333333333333,1.0,45.25,21.75,46.5,14.0,15.0,9.0,22.0,10.0,17.0,4.0,52.0,38.0,44.0,40.0,46.0,47.0,6.0,0.1089324574155152,0.6644985172004566
207,44,120,46.333333333333336,1.8125833333333334,0.6666666666666666,26.0,21.75,24.583333333333336,14.0,15.0,9.0,22.0,10.0,17.0,4.0,52.0,38.0,44.0,40.0,46.0,47.0,6.0,0.1089324574155152,0.6644985172004566
208,44,150,21.166666666666668,2.028,0.75,32.333333333333336,21.75,-0.5833333333333321,14.0,15.0,9.0,22.0,10.0,17.0,4.0,52.0,38.0,44.0,40.0,46.0,47.0,6.0,0.1089324574155152,0.6644985172004566
209,44,180,21.75,1.854,0.6666666666666666,42.916666666666664,21.75,0.0,14.0,15.0,9.0,22.0,10.0,17.0,4.0,52.0,38.0,44.0,40.0,46.0,47.0,6.0,0.1089324574155152,0.6644985172004566
210,45,0,92.16666666666667,3.762083333333333,1.0,40.5,8.416666666666666,83.75,21.0,16.0,15.0,15.0,13.0,10.0,0.0,20.0,20.0,30.0,39.0,50.0,42.0,1.0,0.0640266946637513,0.8892135499193081
211,45,30,97.66666666666667,3.599,1.0,34.0,8.416666666666666,89.25,21.0,16.0,15.0,15.0,13.0,10.0,0.0,20.0,20.0,30.0,39.0,50.0,42.0,1.0,0.0640266946637513,0.8892135499193081
212,45,60,95.25,4.079166666666667,1.0,42.333333333333336,8.416666666666666,86.83333333333333,21.0,16.0,15.0,15.0,13.0,10.0,0.0,20.0,20.0,30.0,39.0,50.0,42.0,1.0,0.0640266946637513,0.8892135499193081
213,45,90,89.75,3.6180833333333333,1.0,46.833333333333336,8.416666666666666,81.33333333333333,21.0,16.0,15.0,15.0,13.0,10.0,0.0,20.0,20.0,30.0,39.0,50.0,42.0,1.0,0.0640266946637513,0.8892135499193081
214,45,120,41.916666666666664,3.753916666666667,1.0,42.833333333333336,8.416666666666666,33.5,21.0,16.0,15.0,15.0,13.0,10.0,0.0,20.0,20.0,30.0,39.0,50.0,42.0,1.0,0.0640266946637513,0.8892135499193081
215,45,150,15.416666666666666,3.7885000000000004,0.5,46.583333333333336,8.416666666666666,7.0,21.0,16.0,15.0,15.0,13.0,10.0,0.0,20.0,20.0,30.0,39.0,50.0,42.0,1.0,0.0640266946637513,0.8892135499193081
216,45,180,8.416666666666666,3.52,0.3333333333333333,37.416666666666664,8.416666666666666,0.0,21.0,16.0,15.0,15.0,13.0,10.0,0.0,20.0,20.0,30.0,39.0,50.0,42.0,1.0,0.0640266946637513,0.8892135499193081
217,46,0,92.0,4.641416666666667,1.0,46.25,29.5,62.5,23.0,25.0,22.0,17.0,23.0,23.0,12.0,53.0,31.0,46.0,36.0,32.0,44.0,5.0,0.224982794716133,0.5893191124765312
218,46,30,88.5,4.315416666666667,1.0,36.416666666666664,29.5,59.0,23.0,25.0,22.0,17.0,23.0,23.0,12.0,53.0,31.0,46.0,36.0,32.0,44.0,5.0,0.224982794716133,0.5893191124765312
219,46,60,78.25,3.694333333333333,1.0,52.583333333333336,29.5,48.75,23.0,25.0,22.0,17.0,23.0,23.0,12.0,53.0,31.0,46.0,36.0,32.0,44.0,5.0,0.224982794716133,0.5893191124765312
220,46,90,65.16666666666667,4.1120833333333335,1.0,38.833333333333336,29.5,35.66666666666667,23.0,25.0,22.0,17.0,23.0,23.0,12.0,53.0,31.0,46.0,36.0,32.0,44.0,5.0,0.224982794716133,0.5893191124765312
221,46,120,51.25,4.274583333333333,0.75,40.166666666666664,29.5,21.75,23.0,25.0,22.0,17.0,23.0,23.0,12.0,53.0,31.0,46.0,36.0,32.0,44.0,5.0,0.224982794716133,0.5893191124765312
222,46,150,32.90909090909091,4.71875,0.6666666666666666,33.583333333333336,29.5,3.4090909090909065,23.0,25.0,22.0,17.0,23.0,23.0,12.0,53.0,31.0,46.0,36.0,32.0,44.0,5.0,0.224982794716133,0.5893191124765312
223,46,180,29.5,4.089166666666666,0.6666666666666666,42.666666666666664,29.5,0.0,23.0,25.0,22.0,17.0,23.0,23.0,12.0,53.0,31.0,46.0,36.0,32.0,44.0,5.0,0.224982794716133,0.5893191124765312
224,47,0,97.16666666666667,3.0058333333333334,1.0,51.333333333333336,7.25,89.91666666666667,12.0,13.0,11.0,10.0,8.0,12.0,0.0,36.0,38.0,35.0,44.0,42.0,37.0,2.0,0.0622358116161091,0.9143520561768316
225,47,30,98.83333333333333,2.6003333333333334,1.0,37.416666666666664,7.25,91.58333333333333,12.0,13.0,11.0,10.0,8.0,12.0,0.0,36.0,38.0,35.0,44.0,42.0,37.0,2.0,0.0622358116161091,0.9143520561768316
226,47,60,94.5,3.187583333333333,1.0,34.75,7.25,87.25,12.0,13.0,11.0,10.0,8.0,12.0,0.0,36.0,38.0,35.0,44.0,42.0,37.0,2.0,0.0622358116161091,0.9143520561768316
227,47,90,90.16666666666667,2.9314999999999998,1.0,41.0,7.25,82.91666666666667,12.0,13.0,11.0,10.0,8.0,12.0,0.0,36.0,38.0,35.0,44.0,42.0,37.0,2.0,0.0622358116161091,0.9143520561768316
228,47,120,28.083333333333332,3.1305,1.0,39.416666666666664,7.25,20.833333333333332,12.0,13.0,11.0,10.0,8.0,12.0,0.0,36.0,38.0,35.0,44.0,42.0,37.0,2.0,0.0622358116161091,0.9143520561768316
229,47,150,28.833333333333332,3.5573333333333337,0.5,40.333333333333336,7.25,21.583333333333332,12.0,13.0,11.0,10.0,8.0,12.0,0.0,36.0,38.0,35.0,44.0,42.0,37.0,2.0,0.0622358116161091,0.9143520561768316
230,47,180,7.25,3.0292499999999998,0.5,46.25,7.25,0.0,12.0,13.0,11.0,10.0,8.0,12.0,0.0,36.0,38.0,35.0,44.0,42.0,37.0,2.0,0.0622358116161091,0.9143520561768316
231,48,0,96.66666666666667,2.4909166666666667,1.0,41.833333333333336,34.0,62.66666666666667,12.0,23.0,9.0,17.0,15.0,16.0,15.0,50.0,32.0,38.0,40.0,40.0,34.0,5.0,0.2883100190836053,0.6428568623078704
232,48,30,94.25,2.6263333333333336,1.0,48.0,34.0,60.25,12.0,23.0,9.0,17.0,15.0,16.0,15.0,50.0,32.0,38.0,40.0,40.0,34.0,5.0,0.2883100190836053,0.6428568623078704
233,48,60,87.41666666666667,3.0641666666666665,1.0,44.666666666666664,34.0,53.41666666666667,12.0,23.0,9.0,17.0,15.0,16.0,15.0,50.0,32.0,38.0,40.0,40.0,34.0,5.0,0.2883100190836053,0.6428568623078704
234,48,90,78.91666666666667,2.511833333333333,1.0,35.833333333333336,34.0,44.91666666666667,12.0,23.0,9.0,17.0,15.0,16.0,15.0,50.0,32.0,38.0,40.0,40.0,34.0,5.0,0.2883100190836053,0.6428568623078704
235,48,120,47.833333333333336,2.63325,0.8333333333333334,41.5,34.0,13.833333333333336,12.0,23.0,9.0,17.0,15.0,16.0,15.0,50.0,32.0,38.0,40.0,40.0,34.0,5.0,0.2883100190836053,0.6428568623078704
236,48,150,31.75,2.7093333333333334,0.6666666666666666,31.25,34.0,-2.25,12.0,23.0,9.0,17.0,15.0,16.0,15.0,50.0,32.0,38.0,40.0,40.0,34.0,5.0,0.2883100190836053,0.6428568623078704
237,48,180,34.0,2.7656666666666667,0.5,47.416666666666664,34.0,0.0,12.0,23.0,9.0,17.0,15.0,16.0,15.0,50.0,32.0,38.0,40.0,40.0,34.0,5.0,0.2883100190836053,0.6428568623078704
238,50,0,90.08333333333333,2.8594166666666667,1.0,42.25,4.916666666666667,85.16666666666666,12.0,12.0,11.0,17.0,5.0,21.0,1.0,34.0,37.0,38.0,50.18181818181818,42.0,44.0,3.0,-0.0825443734527507,0.8835671286847204
239,50,30,83.5,3.175333333333333,1.0,44.416666666666664,4.916666666666667,78.58333333333333,12.0,12.0,11.0,17.0,5.0,21.0,1.0,34.0,37.0,38.0,50.18181818181818,42.0,44.0,3.0,-0.0825443734527507,0.8835671286847204
240,50,60,78.83333333333333,3.035833333333333,0.9166666666666666,33.75,4.916666666666667,73.91666666666666,12.0,12.0,11.0,17.0,5.0,21.0,1.0,34.0,37.0,38.0,50.18181818181818,42.0,44.0,3.0,-0.0825443734527507,0.8835671286847204
241,50,90,62.166666666666664,3.21875,0.9166666666666666,25.833333333333332,4.916666666666667,57.25,12.0,12.0,11.0,17.0,5.0,21.0,1.0,34.0,37.0,38.0,50.18181818181818,42.0,44.0,3.0,-0.0825443734527507,0.8835671286847204
242,50,120,11.166666666666666,3.4745000000000004,0.6666666666666666,46.5,4.916666666666667,6.249999999999999,12.0,12.0,11.0,17.0,5.0,21.0,1.0,34.0,37.0,38.0,50.18181818181818,42.0,44.0,3.0,-0.0825443734527507,0.8835671286847204
243,50,150,1.5833333333333333,3.2089999999999996,0.6666666666666666,54.25,4.916666666666667,-3.333333333333334,12.0,12.0,11.0,17.0,5.0,21.0,1.0,34.0,37.0,38.0,50.18181818181818,42.0,44.0,3.0,-0.0825443734527507,0.8835671286847204
244,50,180,4.916666666666667,3.366,0.8333333333333334,43.5,4.916666666666667,0.0,12.0,12.0,11.0,17.0,5.0,21.0,1.0,34.0,37.0,38.0,50.18181818181818,42.0,44.0,3.0,-0.0825443734527507,0.8835671286847204
245,55,0,100.0,2.4025833333333333,1.0,54.166666666666664,28.416666666666668,71.58333333333333,21.0,11.0,16.0,18.0,18.0,25.0,4.0,27.0,27.0,46.0,34.0,37.0,48.0,2.0,0.2222612562686432,0.7750558584527384
246,55,30,98.08333333333333,2.7071666666666663,1.0,42.666666666666664,28.416666666666668,69.66666666666666,21.0,11.0,16.0,18.0,18.0,25.0,4.0,27.0,27.0,46.0,34.0,37.0,48.0,2.0,0.2222612562686432,0.7750558584527384
247,55,60,96.91666666666667,2.4534166666666666,1.0,34.583333333333336,28.416666666666668,68.5,21.0,11.0,16.0,18.0,18.0,25.0,4.0,27.0,27.0,46.0,34.0,37.0,48.0,2.0,0.2222612562686432,0.7750558584527384
248,55,90,79.08333333333333,2.599666666666667,1.0,44.083333333333336,28.416666666666668,50.66666666666666,21.0,11.0,16.0,18.0,18.0,25.0,4.0,27.0,27.0,46.0,34.0,37.0,48.0,2.0,0.2222612562686432,0.7750558584527384
249,55,120,61.75,2.5529166666666665,0.8333333333333334,39.333333333333336,28.416666666666668,33.33333333333333,21.0,11.0,16.0,18.0,18.0,25.0,4.0,27.0,27.0,46.0,34.0,37.0,48.0,2.0,0.2222612562686432,0.7750558584527384
250,55,150,20.25,2.70175,0.6666666666666666,41.583333333333336,28.416666666666668,-8.166666666666668,21.0,11.0,16.0,18.0,18.0,25.0,4.0,27.0,27.0,46.0,34.0,37.0,48.0,2.0,0.2222612562686432,0.7750558584527384
251,55,180,28.416666666666668,2.594,0.4166666666666667,34.083333333333336,28.416666666666668,0.0,21.0,11.0,16.0,18.0,18.0,25.0,4.0,27.0,27.0,46.0,34.0,37.0,48.0,2.0,0.2222612562686432,0.7750558584527384
252,60,0,100.0,3.5595,1.0,37.083333333333336,22.333333333333332,77.66666666666667,6.0,15.0,12.0,17.0,9.0,32.0,1.0,16.0,49.0,38.0,43.0,59.0,23.0,4.0,0.1457710331240387,0.8517414330430626
253,60,30,98.75,3.5058333333333334,1.0,38.666666666666664,22.333333333333332,76.41666666666667,6.0,15.0,12.0,17.0,9.0,32.0,1.0,16.0,49.0,38.0,43.0,59.0,23.0,4.0,0.1457710331240387,0.8517414330430626
254,60,60,95.0,4.0281666666666665,0.9166666666666666,38.5,22.333333333333332,72.66666666666667,6.0,15.0,12.0,17.0,9.0,32.0,1.0,16.0,49.0,38.0,43.0,59.0,23.0,4.0,0.1457710331240387,0.8517414330430626
255,60,90,79.16666666666667,3.926,1.0,50.0,22.333333333333332,56.83333333333334,6.0,15.0,12.0,17.0,9.0,32.0,1.0,16.0,49.0,38.0,43.0,59.0,23.0,4.0,0.1457710331240387,0.8517414330430626
256,60,120,54.083333333333336,4.214083333333333,0.9166666666666666,41.75,22.333333333333332,31.750000000000004,6.0,15.0,12.0,17.0,9.0,32.0,1.0,16.0,49.0,38.0,43.0,59.0,23.0,4.0,0.1457710331240387,0.8517414330430626
257,60,150,12.833333333333334,4.06375,0.6666666666666666,37.0,22.333333333333332,-9.499999999999998,6.0,15.0,12.0,17.0,9.0,32.0,1.0,16.0,49.0,38.0,43.0,59.0,23.0,4.0,0.1457710331240387,0.8517414330430626
258,60,180,22.333333333333332,3.908,0.5833333333333334,47.5,22.333333333333332,0.0,6.0,15.0,12.0,17.0,9.0,32.0,1.0,16.0,49.0,38.0,43.0,59.0,23.0,4.0,0.1457710331240387,0.8517414330430626
259,63,0,99.33333333333333,3.4012499999999997,1.0,45.5,13.333333333333334,86.0,21.0,21.0,13.0,26.0,21.0,10.0,25.0,49.0,20.0,40.0,40.0,39.0,53.0,2.0,0.1285526910740175,0.857097054206935
260,63,30,98.25,4.069833333333333,1.0,38.5,13.333333333333334,84.91666666666667,21.0,21.0,13.0,26.0,21.0,10.0,25.0,49.0,20.0,40.0,40.0,39.0,53.0,2.0,0.1285526910740175,0.857097054206935
261,63,60,94.41666666666667,3.956166666666667,0.8333333333333334,35.416666666666664,13.333333333333334,81.08333333333334,21.0,21.0,13.0,26.0,21.0,10.0,25.0,49.0,20.0,40.0,40.0,39.0,53.0,2.0,0.1285526910740175,0.857097054206935
262,63,90,72.66666666666667,3.987833333333333,1.0,40.0,13.333333333333334,59.333333333333336,21.0,21.0,13.0,26.0,21.0,10.0,25.0,49.0,20.0,40.0,40.0,39.0,53.0,2.0,0.1285526910740175,0.857097054206935
263,63,120,29.333333333333332,4.21725,0.8333333333333334,46.333333333333336,13.333333333333334,15.999999999999998,21.0,21.0,13.0,26.0,21.0,10.0,25.0,49.0,20.0,40.0,40.0,39.0,53.0,2.0,0.1285526910740175,0.857097054206935
264,63,150,16.0,4.02325,0.5833333333333334,44.083333333333336,13.333333333333334,2.666666666666666,21.0,21.0,13.0,26.0,21.0,10.0,25.0,49.0,20.0,40.0,40.0,39.0,53.0,2.0,0.1285526910740175,0.857097054206935
265,63,180,13.333333333333334,4.042166666666667,0.5,40.666666666666664,13.333333333333334,0.0,21.0,21.0,13.0,26.0,21.0,10.0,25.0,49.0,20.0,40.0,40.0,39.0,53.0,2.0,0.1285526910740175,0.857097054206935
266,65,0,83.58333333333333,2.88875,0.9166666666666666,44.333333333333336,35.833333333333336,47.74999999999999,7.0,4.0,10.0,9.0,0.0,30.0,1.0,26.0,46.0,46.0,48.0,56.0,31.0,2.0,0.1874260989548924,0.4821198912230636
267,65,30,83.0,2.9751666666666665,0.8333333333333334,41.666666666666664,35.833333333333336,47.166666666666664,7.0,4.0,10.0,9.0,0.0,30.0,1.0,26.0,46.0,46.0,48.0,56.0,31.0,2.0,0.1874260989548924,0.4821198912230636
268,65,60,77.83333333333333,3.3487500000000003,0.9166666666666666,48.75,35.833333333333336,41.99999999999999,7.0,4.0,10.0,9.0,0.0,30.0,1.0,26.0,46.0,46.0,48.0,56.0,31.0,2.0,0.1874260989548924,0.4821198912230636
269,65,90,69.08333333333333,3.0210833333333333,0.8333333333333334,47.083333333333336,35.833333333333336,33.24999999999999,7.0,4.0,10.0,9.0,0.0,30.0,1.0,26.0,46.0,46.0,48.0,56.0,31.0,2.0,0.1874260989548924,0.4821198912230636
270,65,120,48.833333333333336,3.517333333333333,0.75,33.75,35.833333333333336,13.0,7.0,4.0,10.0,9.0,0.0,30.0,1.0,26.0,46.0,46.0,48.0,56.0,31.0,2.0,0.1874260989548924,0.4821198912230636
271,65,150,34.75,3.4099166666666663,0.8333333333333334,30.916666666666668,35.833333333333336,-1.0833333333333357,7.0,4.0,10.0,9.0,0.0,30.0,1.0,26.0,46.0,46.0,48.0,56.0,31.0,2.0,0.1874260989548924,0.4821198912230636
272,65,180,35.833333333333336,3.203333333333333,0.5833333333333334,44.0,35.833333333333336,0.0,7.0,4.0,10.0,9.0,0.0,30.0,1.0,26.0,46.0,46.0,48.0,56.0,31.0,2.0,0.1874260989548924,0.4821198912230636
273,66,0,89.0,3.0560833333333335,0.9166666666666666,28.916666666666668,24.583333333333332,64.41666666666667,11.0,14.0,11.0,13.0,11.0,12.0,9.0,38.0,25.0,41.0,41.0,34.0,64.0,8.0,0.1338937815075115,0.6360889041268135
274,66,30,83.91666666666667,3.0780833333333333,0.6666666666666666,45.5,24.583333333333332,59.33333333333334,11.0,14.0,11.0,13.0,11.0,12.0,9.0,38.0,25.0,41.0,41.0,34.0,64.0,8.0,0.1338937815075115,0.6360889041268135
275,66,60,74.08333333333333,3.32975,0.8333333333333334,47.166666666666664,24.583333333333332,49.5,11.0,14.0,11.0,13.0,11.0,12.0,9.0,38.0,25.0,41.0,41.0,34.0,64.0,8.0,0.1338937815075115,0.6360889041268135
276,66,90,57.25,2.9164999999999996,0.6666666666666666,52.25,24.583333333333332,32.66666666666667,11.0,14.0,11.0,13.0,11.0,12.0,9.0,38.0,25.0,41.0,41.0,34.0,64.0,8.0,0.1338937815075115,0.6360889041268135
277,66,120,27.5,2.9731666666666663,0.5833333333333334,34.833333333333336,24.583333333333332,2.916666666666668,11.0,14.0,11.0,13.0,11.0,12.0,9.0,38.0,25.0,41.0,41.0,34.0,64.0,8.0,0.1338937815075115,0.6360889041268135
278,66,150,25.666666666666668,3.2762499999999997,0.4166666666666667,30.666666666666668,24.583333333333332,1.0833333333333357,11.0,14.0,11.0,13.0,11.0,12.0,9.0,38.0,25.0,41.0,41.0,34.0,64.0,8.0,0.1338937815075115,0.6360889041268135
279,66,180,24.583333333333332,2.9505,0.5833333333333334,51.166666666666664,24.583333333333332,0.0,11.0,14.0,11.0,13.0,11.0,12.0,9.0,38.0,25.0,41.0,41.0,34.0,64.0,8.0,0.1338937815075115,0.6360889041268135
280,69,0,98.16666666666667,2.339,1.0,40.166666666666664,36.083333333333336,62.083333333333336,19.0,23.0,20.0,21.0,18.0,11.0,3.0,36.0,17.0,45.0,40.0,42.0,54.0,3.0,0.2021093222891646,0.7586853889282988
281,69,30,95.41666666666667,2.5440833333333335,1.0,48.333333333333336,36.083333333333336,59.333333333333336,19.0,23.0,20.0,21.0,18.0,11.0,3.0,36.0,17.0,45.0,40.0,42.0,54.0,3.0,0.2021093222891646,0.7586853889282988
282,69,60,91.75,2.5104166666666665,0.9166666666666666,53.583333333333336,36.083333333333336,55.666666666666664,19.0,23.0,20.0,21.0,18.0,11.0,3.0,36.0,17.0,45.0,40.0,42.0,54.0,3.0,0.2021093222891646,0.7586853889282988
283,69,90,81.08333333333333,2.97325,0.9166666666666666,35.333333333333336,36.083333333333336,44.99999999999999,19.0,23.0,20.0,21.0,18.0,11.0,3.0,36.0,17.0,45.0,40.0,42.0,54.0,3.0,0.2021093222891646,0.7586853889282988
284,69,120,50.333333333333336,3.6203333333333334,0.75,36.833333333333336,36.083333333333336,14.25,19.0,23.0,20.0,21.0,18.0,11.0,3.0,36.0,17.0,45.0,40.0,42.0,54.0,3.0,0.2021093222891646,0.7586853889282988
285,69,150,20.833333333333332,3.20525,0.5,48.333333333333336,36.083333333333336,-15.250000000000004,19.0,23.0,20.0,21.0,18.0,11.0,3.0,36.0,17.0,45.0,40.0,42.0,54.0,3.0,0.2021093222891646,0.7586853889282988
286,69,180,36.083333333333336,3.24175,0.5833333333333334,27.916666666666668,36.083333333333336,0.0,19.0,23.0,20.0,21.0,18.0,11.0,3.0,36.0,17.0,45.0,40.0,42.0,54.0,3.0,0.2021093222891646,0.7586853889282988
287,70,0,96.83333333333333,2.984083333333333,1.0,46.583333333333336,19.5,77.33333333333333,25.0,16.0,11.0,15.0,13.0,13.0,4.444444444444445,44.0,29.0,41.0,41.0,41.0,49.0,3.0,-0.0046534328067756,0.9412592967709698
288,70,30,93.83333333333333,3.0437499999999997,1.0,49.416666666666664,19.5,74.33333333333333,25.0,16.0,11.0,15.0,13.0,13.0,4.444444444444445,44.0,29.0,41.0,41.0,41.0,49.0,3.0,-0.0046534328067756,0.9412592967709698
289,70,60,89.66666666666667,3.3219999999999996,1.0,42.916666666666664,19.5,70.16666666666667,25.0,16.0,11.0,15.0,13.0,13.0,4.444444444444445,44.0,29.0,41.0,41.0,41.0,49.0,3.0,-0.0046534328067756,0.9412592967709698
290,70,90,77.0,4.0906666666666665,1.0,30.666666666666668,19.5,57.5,25.0,16.0,11.0,15.0,13.0,13.0,4.444444444444445,44.0,29.0,41.0,41.0,41.0,49.0,3.0,-0.0046534328067756,0.9412592967709698
291,70,120,15.666666666666666,4.00125,0.75,35.416666666666664,19.5,-3.833333333333334,25.0,16.0,11.0,15.0,13.0,13.0,4.444444444444445,44.0,29.0,41.0,41.0,41.0,49.0,3.0,-0.0046534328067756,0.9412592967709698
292,70,150,2.6666666666666665,3.503833333333333,0.3333333333333333,36.166666666666664,19.5,-16.833333333333332,25.0,16.0,11.0,15.0,13.0,13.0,4.444444444444445,44.0,29.0,41.0,41.0,41.0,49.0,3.0,-0.0046534328067756,0.9412592967709698
293,70,180,19.5,4.015333333333333,0.5,49.333333333333336,19.5,0.0,25.0,16.0,11.0,15.0,13.0,13.0,4.444444444444445,44.0,29.0,41.0,41.0,41.0,49.0,3.0,-0.0046534328067756,0.9412592967709698
294,71,0,89.91666666666667,2.310416666666667,1.0,41.333333333333336,45.166666666666664,44.75000000000001,10.0,17.0,13.0,18.0,8.0,14.0,0.0,40.0,42.54545454545455,24.0,40.0,44.0,45.0,6.0,0.3110515930693781,0.4723293245242002
295,71,30,88.66666666666667,2.3673333333333333,1.0,46.75,45.166666666666664,43.50000000000001,10.0,17.0,13.0,18.0,8.0,14.0,0.0,40.0,42.54545454545455,24.0,40.0,44.0,45.0,6.0,0.3110515930693781,0.4723293245242002
296,71,60,82.83333333333333,2.4751666666666665,1.0,39.333333333333336,45.166666666666664,37.666666666666664,10.0,17.0,13.0,18.0,8.0,14.0,0.0,40.0,42.54545454545455,24.0,40.0,44.0,45.0,6.0,0.3110515930693781,0.4723293245242002
297,71,90,65.16666666666667,2.7915833333333335,1.0,37.25,45.166666666666664,20.000000000000007,10.0,17.0,13.0,18.0,8.0,14.0,0.0,40.0,42.54545454545455,24.0,40.0,44.0,45.0,6.0,0.3110515930693781,0.4723293245242002
298,71,120,57.916666666666664,3.5026666666666664,0.9166666666666666,48.666666666666664,45.166666666666664,12.75,10.0,17.0,13.0,18.0,8.0,14.0,0.0,40.0,42.54545454545455,24.0,40.0,44.0,45.0,6.0,0.3110515930693781,0.4723293245242002
299,71,150,40.666666666666664,4.398916666666667,0.5833333333333334,36.166666666666664,45.166666666666664,-4.5,10.0,17.0,13.0,18.0,8.0,14.0,0.0,40.0,42.54545454545455,24.0,40.0,44.0,45.0,6.0,0.3110515930693781,0.4723293245242002
300,71,180,45.166666666666664,3.4243333333333332,0.5833333333333334,41.0,45.166666666666664,0.0,10.0,17.0,13.0,18.0,8.0,14.0,0.0,40.0,42.54545454545455,24.0,40.0,44.0,45.0,6.0,0.3110515930693781,0.4723293245242002
301,73,0,95.08333333333333,3.45225,1.0,28.416666666666668,13.416666666666666,81.66666666666666,6.0,9.0,17.0,19.0,9.0,20.0,2.0,18.0,34.0,28.0,35.0,45.0,31.0,4.0,0.1314807646421532,0.8455570589661572
302,73,30,99.0,4.10575,0.9166666666666666,42.416666666666664,13.416666666666666,85.58333333333333,6.0,9.0,17.0,19.0,9.0,20.0,2.0,18.0,34.0,28.0,35.0,45.0,31.0,4.0,0.1314807646421532,0.8455570589661572
303,73,60,95.66666666666667,4.027,0.9166666666666666,34.0,13.416666666666666,82.25,6.0,9.0,17.0,19.0,9.0,20.0,2.0,18.0,34.0,28.0,35.0,45.0,31.0,4.0,0.1314807646421532,0.8455570589661572
304,73,90,72.25,3.91775,1.0,43.0,13.416666666666666,58.833333333333336,6.0,9.0,17.0,19.0,9.0,20.0,2.0,18.0,34.0,28.0,35.0,45.0,31.0,4.0,0.1314807646421532,0.8455570589661572
305,73,120,39.833333333333336,3.3996666666666666,0.8333333333333334,42.416666666666664,13.416666666666666,26.41666666666667,6.0,9.0,17.0,19.0,9.0,20.0,2.0,18.0,34.0,28.0,35.0,45.0,31.0,4.0,0.1314807646421532,0.8455570589661572
306,73,150,16.0,3.8521666666666667,0.8333333333333334,45.25,13.416666666666666,2.583333333333334,6.0,9.0,17.0,19.0,9.0,20.0,2.0,18.0,34.0,28.0,35.0,45.0,31.0,4.0,0.1314807646421532,0.8455570589661572
307,73,180,13.416666666666666,3.861083333333333,0.4166666666666667,55.0,13.416666666666666,0.0,6.0,9.0,17.0,19.0,9.0,20.0,2.0,18.0,34.0,28.0,35.0,45.0,31.0,4.0,0.1314807646421532,0.8455570589661572
308,74,0,92.83333333333333,3.2855833333333333,0.9166666666666666,37.083333333333336,10.833333333333334,82.0,18.0,18.0,8.0,16.0,16.0,22.0,11.0,35.0,33.0,39.0,40.0,42.0,47.0,3.0,0.0515566521250923,0.766910636275933
309,74,30,92.16666666666667,3.349083333333333,0.9166666666666666,33.583333333333336,10.833333333333334,81.33333333333334,18.0,18.0,8.0,16.0,16.0,22.0,11.0,35.0,33.0,39.0,40.0,42.0,47.0,3.0,0.0515566521250923,0.766910636275933
310,74,60,69.91666666666667,3.3371666666666666,1.0,37.833333333333336,10.833333333333334,59.083333333333336,18.0,18.0,8.0,16.0,16.0,22.0,11.0,35.0,33.0,39.0,40.0,42.0,47.0,3.0,0.0515566521250923,0.766910636275933
311,74,90,59.75,3.326833333333333,1.0,47.583333333333336,10.833333333333334,48.916666666666664,18.0,18.0,8.0,16.0,16.0,22.0,11.0,35.0,33.0,39.0,40.0,42.0,47.0,3.0,0.0515566521250923,0.766910636275933
312,74,120,39.166666666666664,3.794916666666667,1.0,40.25,10.833333333333334,28.33333333333333,18.0,18.0,8.0,16.0,16.0,22.0,11.0,35.0,33.0,39.0,40.0,42.0,47.0,3.0,0.0515566521250923,0.766910636275933
313,74,150,17.25,3.689916666666667,0.6666666666666666,56.666666666666664,10.833333333333334,6.416666666666666,18.0,18.0,8.0,16.0,16.0,22.0,11.0,35.0,33.0,39.0,40.0,42.0,47.0,3.0,0.0515566521250923,0.766910636275933
314,74,180,10.833333333333334,3.6620833333333334,0.3333333333333333,37.5,10.833333333333334,0.0,18.0,18.0,8.0,16.0,16.0,22.0,11.0,35.0,33.0,39.0,40.0,42.0,47.0,3.0,0.0515566521250923,0.766910636275933
315,75,0,99.33333333333333,3.298166666666667,1.0,48.25,16.5,82.83333333333333,25.0,20.0,9.0,6.0,22.0,9.0,21.0,49.0,15.0,33.0,36.0,31.0,68.0,1.0,0.1584866551282535,0.8278600443275314
316,75,30,97.75,3.3078333333333334,1.0,37.416666666666664,16.5,81.25,25.0,20.0,9.0,6.0,22.0,9.0,21.0,49.0,15.0,33.0,36.0,31.0,68.0,1.0,0.1584866551282535,0.8278600443275314
317,75,60,94.41666666666667,2.9955833333333337,1.0,35.75,16.5,77.91666666666667,25.0,20.0,9.0,6.0,22.0,9.0,21.0,49.0,15.0,33.0,36.0,31.0,68.0,1.0,0.1584866551282535,0.8278600443275314
318,75,90,81.5,3.2533333333333334,1.0,48.666666666666664,16.5,65.0,25.0,20.0,9.0,6.0,22.0,9.0,21.0,49.0,15.0,33.0,36.0,31.0,68.0,1.0,0.1584866551282535,0.8278600443275314
319,75,120,36.166666666666664,3.4916666666666667,1.0,32.083333333333336,16.5,19.666666666666664,25.0,20.0,9.0,6.0,22.0,9.0,21.0,49.0,15.0,33.0,36.0,31.0,68.0,1.0,0.1584866551282535,0.8278600443275314
320,75,150,16.333333333333332,3.3496666666666663,0.8333333333333334,33.0,16.5,-0.16666666666666785,25.0,20.0,9.0,6.0,22.0,9.0,21.0,49.0,15.0,33.0,36.0,31.0,68.0,1.0,0.1584866551282535,0.8278600443275314
321,75,180,16.5,3.39225,0.5833333333333334,55.333333333333336,16.5,0.0,25.0,20.0,9.0,6.0,22.0,9.0,21.0,49.0,15.0,33.0,36.0,31.0,68.0,1.0,0.1584866551282535,0.8278600443275314
322,78,0,92.5,3.37025,1.0,37.0,34.75,57.75,6.0,14.0,10.0,23.0,4.0,22.0,0.0,28.0,43.0,35.0,47.0,54.0,30.0,10.0,0.2655179301045084,0.5763750422600478
323,78,30,90.41666666666667,3.3891666666666667,0.9166666666666666,49.666666666666664,34.75,55.66666666666667,6.0,14.0,10.0,23.0,4.0,22.0,0.0,28.0,43.0,35.0,47.0,54.0,30.0,10.0,0.2655179301045084,0.5763750422600478
324,78,60,80.08333333333333,3.27975,1.0,40.416666666666664,34.75,45.33333333333333,6.0,14.0,10.0,23.0,4.0,22.0,0.0,28.0,43.0,35.0,47.0,54.0,30.0,10.0,0.2655179301045084,0.5763750422600478
325,78,90,72.91666666666667,3.8710833333333334,0.9166666666666666,35.333333333333336,34.75,38.16666666666667,6.0,14.0,10.0,23.0,4.0,22.0,0.0,28.0,43.0,35.0,47.0,54.0,30.0,10.0,0.2655179301045084,0.5763750422600478
326,78,120,48.25,3.4338333333333337,0.75,43.416666666666664,34.75,13.5,6.0,14.0,10.0,23.0,4.0,22.0,0.0,28.0,43.0,35.0,47.0,54.0,30.0,10.0,0.2655179301045084,0.5763750422600478
327,78,150,33.5,3.8735,0.4166666666666667,34.75,34.75,-1.25,6.0,14.0,10.0,23.0,4.0,22.0,0.0,28.0,43.0,35.0,47.0,54.0,30.0,10.0,0.2655179301045084,0.5763750422600478
328,78,180,34.75,3.6156666666666664,0.4166666666666667,49.916666666666664,34.75,0.0,6.0,14.0,10.0,23.0,4.0,22.0,0.0,28.0,43.0,35.0,47.0,54.0,30.0,10.0,0.2655179301045084,0.5763750422600478
329,81,0,99.83333333333333,3.485333333333333,1.0,30.5,21.0,78.83333333333333,18.0,10.0,9.0,5.0,5.0,7.777777777777778,6.0,46.90909090909091,25.0,32.72727272727273,42.0,26.0,60.0,2.0,0.2352451985967373,0.7565498254561195
330,81,30,98.58333333333333,3.4293333333333336,0.9166666666666666,46.416666666666664,21.0,77.58333333333333,18.0,10.0,9.0,5.0,5.0,7.777777777777778,6.0,46.90909090909091,25.0,32.72727272727273,42.0,26.0,60.0,2.0,0.2352451985967373,0.7565498254561195
331,81,60,91.45454545454545,3.687333333333333,0.8333333333333334,34.75,21.0,70.45454545454545,18.0,10.0,9.0,5.0,5.0,7.777777777777778,6.0,46.90909090909091,25.0,32.72727272727273,42.0,26.0,60.0,2.0,0.2352451985967373,0.7565498254561195
332,81,90,79.58333333333333,3.279,0.9166666666666666,48.416666666666664,21.0,58.58333333333333,18.0,10.0,9.0,5.0,5.0,7.777777777777778,6.0,46.90909090909091,25.0,32.72727272727273,42.0,26.0,60.0,2.0,0.2352451985967373,0.7565498254561195
333,81,120,61.75,3.904666666666667,0.8333333333333334,43.916666666666664,21.0,40.75,18.0,10.0,9.0,5.0,5.0,7.777777777777778,6.0,46.90909090909091,25.0,32.72727272727273,42.0,26.0,60.0,2.0,0.2352451985967373,0.7565498254561195
334,81,150,27.166666666666668,3.747,0.8333333333333334,47.166666666666664,21.0,6.166666666666668,18.0,10.0,9.0,5.0,5.0,7.777777777777778,6.0,46.90909090909091,25.0,32.72727272727273,42.0,26.0,60.0,2.0,0.2352451985967373,0.7565498254561195
335,81,180,21.0,4.7205,0.5833333333333334,39.333333333333336,21.0,0.0,18.0,10.0,9.0,5.0,5.0,7.777777777777778,6.0,46.90909090909091,25.0,32.72727272727273,42.0,26.0,60.0,2.0,0.2352451985967373,0.7565498254561195
336,82,0,78.91666666666667,2.5334166666666667,0.9166666666666666,58.166666666666664,45.416666666666664,33.50000000000001,11.0,8.0,6.0,19.0,7.0,19.0,2.0,23.0,41.0,48.0,46.0,41.0,31.0,3.0,0.3435955156469338,0.378882128960567
337,82,30,88.33333333333333,2.4880833333333334,1.0,44.083333333333336,45.416666666666664,42.916666666666664,11.0,8.0,6.0,19.0,7.0,19.0,2.0,23.0,41.0,48.0,46.0,41.0,31.0,3.0,0.3435955156469338,0.378882128960567
338,82,60,73.0,3.095333333333333,0.6666666666666666,36.416666666666664,45.416666666666664,27.583333333333336,11.0,8.0,6.0,19.0,7.0,19.0,2.0,23.0,41.0,48.0,46.0,41.0,31.0,3.0,0.3435955156469338,0.378882128960567
339,82,90,70.58333333333333,2.37575,0.9166666666666666,35.166666666666664,45.416666666666664,25.166666666666664,11.0,8.0,6.0,19.0,7.0,19.0,2.0,23.0,41.0,48.0,46.0,41.0,31.0,3.0,0.3435955156469338,0.378882128960567
340,82,120,61.916666666666664,2.4294166666666666,1.0,40.083333333333336,45.416666666666664,16.5,11.0,8.0,6.0,19.0,7.0,19.0,2.0,23.0,41.0,48.0,46.0,41.0,31.0,3.0,0.3435955156469338,0.378882128960567
341,82,150,48.25,2.42975,0.75,36.416666666666664,45.416666666666664,2.8333333333333357,11.0,8.0,6.0,19.0,7.0,19.0,2.0,23.0,41.0,48.0,46.0,41.0,31.0,3.0,0.3435955156469338,0.378882128960567
342,82,180,45.416666666666664,2.2643333333333335,0.9166666666666666,40.166666666666664,45.416666666666664,0.0,11.0,8.0,6.0,19.0,7.0,19.0,2.0,23.0,41.0,48.0,46.0,41.0,31.0,3.0,0.3435955156469338,0.378882128960567
343,83,0,96.25,3.6551666666666667,1.0,38.916666666666664,8.166666666666666,88.08333333333333,13.0,11.0,8.0,15.0,9.0,21.0,6.0,38.0,35.0,45.0,41.0,39.0,53.0,3.0,0.0042164098498279,0.9139964823490296
344,83,30,94.75,3.8615833333333334,1.0,35.333333333333336,8.166666666666666,86.58333333333333,13.0,11.0,8.0,15.0,9.0,21.0,6.0,38.0,35.0,45.0,41.0,39.0,53.0,3.0,0.0042164098498279,0.9139964823490296
345,83,60,84.0,4.1000000000000005,1.0,37.0,8.166666666666666,75.83333333333333,13.0,11.0,8.0,15.0,9.0,21.0,6.0,38.0,35.0,45.0,41.0,39.0,53.0,3.0,0.0042164098498279,0.9139964823490296
346,83,90,63.833333333333336,4.018,1.0,45.166666666666664,8.166666666666666,55.66666666666667,13.0,11.0,8.0,15.0,9.0,21.0,6.0,38.0,35.0,45.0,41.0,39.0,53.0,3.0,0.0042164098498279,0.9139964823490296
347,83,120,26.916666666666668,4.2745,0.9166666666666666,45.916666666666664,8.166666666666666,18.75,13.0,11.0,8.0,15.0,9.0,21.0,6.0,38.0,35.0,45.0,41.0,39.0,53.0,3.0,0.0042164098498279,0.9139964823490296
348,83,150,3.5,4.328833333333333,0.8333333333333334,39.916666666666664,8.166666666666666,-4.666666666666666,13.0,11.0,8.0,15.0,9.0,21.0,6.0,38.0,35.0,45.0,41.0,39.0,53.0,3.0,0.0042164098498279,0.9139964823490296
349,83,180,8.166666666666666,4.086833333333334,0.75,48.25,8.166666666666666,0.0,13.0,11.0,8.0,15.0,9.0,21.0,6.0,38.0,35.0,45.0,41.0,39.0,53.0,3.0,0.0042164098498279,0.9139964823490296
350,84,0,99.66666666666667,3.5971666666666664,1.0,40.583333333333336,16.083333333333332,83.58333333333334,7.0,10.0,11.0,21.0,8.0,25.0,0.0,19.0,38.0,30.0,45.0,55.0,45.0,4.0,0.1609209760181071,0.8373878737805823
351,84,30,99.83333333333333,3.3255,1.0,51.333333333333336,16.083333333333332,83.75,7.0,10.0,11.0,21.0,8.0,25.0,0.0,19.0,38.0,30.0,45.0,55.0,45.0,4.0,0.1609209760181071,0.8373878737805823
352,84,60,99.91666666666667,3.856333333333333,1.0,35.083333333333336,16.083333333333332,83.83333333333334,7.0,10.0,11.0,21.0,8.0,25.0,0.0,19.0,38.0,30.0,45.0,55.0,45.0,4.0,0.1609209760181071,0.8373878737805823
353,84,90,91.0,3.9348333333333336,1.0,44.666666666666664,16.083333333333332,74.91666666666667,7.0,10.0,11.0,21.0,8.0,25.0,0.0,19.0,38.0,30.0,45.0,55.0,45.0,4.0,0.1609209760181071,0.8373878737805823
354,84,120,41.916666666666664,3.951166666666667,0.5,30.166666666666668,16.083333333333332,25.833333333333332,7.0,10.0,11.0,21.0,8.0,25.0,0.0,19.0,38.0,30.0,45.0,55.0,45.0,4.0,0.1609209760181071,0.8373878737805823
355,84,150,16.833333333333332,3.3056666666666668,0.75,45.416666666666664,16.083333333333332,0.75,7.0,10.0,11.0,21.0,8.0,25.0,0.0,19.0,38.0,30.0,45.0,55.0,45.0,4.0,0.1609209760181071,0.8373878737805823
356,84,180,16.083333333333332,4.012083333333333,0.4166666666666667,43.25,16.083333333333332,0.0,7.0,10.0,11.0,21.0,8.0,25.0,0.0,19.0,38.0,30.0,45.0,55.0,45.0,4.0,0.1609209760181071,0.8373878737805823
357,85,0,100.0,2.4354999999999998,1.0,42.0,0.0,100.0,19.0,13.0,5.0,14.0,14.0,24.0,1.0,23.0,39.0,40.0,42.0,46.0,49.0,6.0,-8.984337218520002e-05,0.996450275835925
358,85,30,100.0,2.6549166666666664,1.0,39.5,0.0,100.0,19.0,13.0,5.0,14.0,14.0,24.0,1.0,23.0,39.0,40.0,42.0,46.0,49.0,6.0,-8.984337218520002e-05,0.996450275835925
359,85,60,91.41666666666667,2.30625,1.0,55.666666666666664,0.0,91.41666666666667,19.0,13.0,5.0,14.0,14.0,24.0,1.0,23.0,39.0,40.0,42.0,46.0,49.0,6.0,-8.984337218520002e-05,0.996450275835925
360,85,90,47.083333333333336,2.6926666666666663,0.75,37.25,0.0,47.083333333333336,19.0,13.0,5.0,14.0,14.0,24.0,1.0,23.0,39.0,40.0,42.0,46.0,49.0,6.0,-8.984337218520002e-05,0.996450275835925
361,85,120,14.0,2.2615833333333333,0.6666666666666666,45.5,0.0,14.0,19.0,13.0,5.0,14.0,14.0,24.0,1.0,23.0,39.0,40.0,42.0,46.0,49.0,6.0,-8.984337218520002e-05,0.996450275835925
362,85,150,0.08333333333333333,2.4750833333333335,0.5,36.833333333333336,0.0,0.08333333333333333,19.0,13.0,5.0,14.0,14.0,24.0,1.0,23.0,39.0,40.0,42.0,46.0,49.0,6.0,-8.984337218520002e-05,0.996450275835925
363,85,180,0.0,2.473333333333333,0.5,33.75,0.0,0.0,19.0,13.0,5.0,14.0,14.0,24.0,1.0,23.0,39.0,40.0,42.0,46.0,49.0,6.0,-8.984337218520002e-05,0.996450275835925
364,86,0,83.41666666666667,2.6285000000000003,1.0,48.083333333333336,18.583333333333332,64.83333333333334,8.0,7.0,0.0,12.0,2.0,27.0,0.0,27.0,40.0,44.0,49.0,42.0,42.0,5.0,0.014351644837891,0.6384850285381258
365,86,30,78.75,2.800166666666667,1.0,24.916666666666668,18.583333333333332,60.16666666666667,8.0,7.0,0.0,12.0,2.0,27.0,0.0,27.0,40.0,44.0,49.0,42.0,42.0,5.0,0.014351644837891,0.6384850285381258
366,86,60,74.91666666666667,2.5329166666666665,1.0,31.75,18.583333333333332,56.33333333333334,8.0,7.0,0.0,12.0,2.0,27.0,0.0,27.0,40.0,44.0,49.0,42.0,42.0,5.0,0.014351644837891,0.6384850285381258
367,86,90,53.666666666666664,2.528,0.9166666666666666,54.666666666666664,18.583333333333332,35.08333333333333,8.0,7.0,0.0,12.0,2.0,27.0,0.0,27.0,40.0,44.0,49.0,42.0,42.0,5.0,0.014351644837891,0.6384850285381258
368,86,120,40.5,2.75075,0.9166666666666666,41.833333333333336,18.583333333333332,21.916666666666668,8.0,7.0,0.0,12.0,2.0,27.0,0.0,27.0,40.0,44.0,49.0,42.0,42.0,5.0,0.014351644837891,0.6384850285381258
369,86,150,17.166666666666668,2.8684999999999996,0.5833333333333334,47.583333333333336,18.583333333333332,-1.4166666666666643,8.0,7.0,0.0,12.0,2.0,27.0,0.0,27.0,40.0,44.0,49.0,42.0,42.0,5.0,0.014351644837891,0.6384850285381258
370,86,180,18.583333333333332,2.6814999999999998,0.5833333333333334,41.666666666666664,18.583333333333332,0.0,8.0,7.0,0.0,12.0,2.0,27.0,0.0,27.0,40.0,44.0,49.0,42.0,42.0,5.0,0.014351644837891,0.6384850285381258
371,87,0,79.83333333333333,2.7711666666666663,1.0,46.0,48.0,31.83333333333333,10.0,11.0,14.0,14.0,10.0,21.0,8.0,37.0,39.0,39.0,40.0,41.0,45.0,10.0,0.2640553244780701,0.3442966997844703
372,87,30,80.91666666666667,2.6946666666666665,1.0,28.583333333333332,48.0,32.91666666666667,10.0,11.0,14.0,14.0,10.0,21.0,8.0,37.0,39.0,39.0,40.0,41.0,45.0,10.0,0.2640553244780701,0.3442966997844703
373,87,60,75.08333333333333,2.7590833333333333,1.0,41.166666666666664,48.0,27.08333333333333,10.0,11.0,14.0,14.0,10.0,21.0,8.0,37.0,39.0,39.0,40.0,41.0,45.0,10.0,0.2640553244780701,0.3442966997844703
374,87,90,65.83333333333333,2.5351666666666666,1.0,50.0,48.0,17.83333333333333,10.0,11.0,14.0,14.0,10.0,21.0,8.0,37.0,39.0,39.0,40.0,41.0,45.0,10.0,0.2640553244780701,0.3442966997844703
375,87,120,60.083333333333336,2.620833333333333,0.8333333333333334,45.333333333333336,48.0,12.083333333333336,10.0,11.0,14.0,14.0,10.0,21.0,8.0,37.0,39.0,39.0,40.0,41.0,45.0,10.0,0.2640553244780701,0.3442966997844703
376,87,150,44.583333333333336,3.4890833333333333,0.75,33.583333333333336,48.0,-3.4166666666666643,10.0,11.0,14.0,14.0,10.0,21.0,8.0,37.0,39.0,39.0,40.0,41.0,45.0,10.0,0.2640553244780701,0.3442966997844703
377,87,180,48.0,2.6084166666666664,0.75,45.833333333333336,48.0,0.0,10.0,11.0,14.0,14.0,10.0,21.0,8.0,37.0,39.0,39.0,40.0,41.0,45.0,10.0,0.2640553244780701,0.3442966997844703
378,89,0,93.5,5.476583333333333,1.0,32.833333333333336,7.5,86.0,22.0,19.0,9.0,16.0,8.0,19.0,12.0,31.0,32.0,38.0,45.0,43.0,41.0,3.0,0.0046614177080687,0.8447379951029014
379,89,30,89.36363636363636,6.221416666666666,0.8333333333333334,38.166666666666664,7.5,81.86363636363636,22.0,19.0,9.0,16.0,8.0,19.0,12.0,31.0,32.0,38.0,45.0,43.0,41.0,3.0,0.0046614177080687,0.8447379951029014
380,89,60,71.72727272727273,7.085916666666666,0.8333333333333334,42.166666666666664,7.5,64.22727272727273,22.0,19.0,9.0,16.0,8.0,19.0,12.0,31.0,32.0,38.0,45.0,43.0,41.0,3.0,0.0046614177080687,0.8447379951029014
381,89,90,45.333333333333336,7.088166666666666,0.9166666666666666,40.0,7.5,37.833333333333336,22.0,19.0,9.0,16.0,8.0,19.0,12.0,31.0,32.0,38.0,45.0,43.0,41.0,3.0,0.0046614177080687,0.8447379951029014
382,89,120,15.166666666666666,5.916250000000001,0.5,44.0,7.5,7.666666666666666,22.0,19.0,9.0,16.0,8.0,19.0,12.0,31.0,32.0,38.0,45.0,43.0,41.0,3.0,0.0046614177080687,0.8447379951029014
383,89,150,10.666666666666666,5.7235000000000005,0.6666666666666666,49.666666666666664,7.5,3.166666666666666,22.0,19.0,9.0,16.0,8.0,19.0,12.0,31.0,32.0,38.0,45.0,43.0,41.0,3.0,0.0046614177080687,0.8447379951029014
384,89,180,7.5,5.452916666666667,0.6666666666666666,43.666666666666664,7.5,0.0,22.0,19.0,9.0,16.0,8.0,19.0,12.0,31.0,32.0,38.0,45.0,43.0,41.0,3.0,0.0046614177080687,0.8447379951029014
385,90,0,98.66666666666667,3.7825,0.9166666666666666,44.5,23.0,75.66666666666667,17.0,8.0,3.0,10.0,6.0,23.0,0.0,17.0,37.0,42.0,46.0,48.0,37.0,0.0,0.2219432422675405,0.7428830409657639
386,90,30,94.41666666666667,3.7655833333333333,1.0,39.166666666666664,23.0,71.41666666666667,17.0,8.0,3.0,10.0,6.0,23.0,0.0,17.0,37.0,42.0,46.0,48.0,37.0,0.0,0.2219432422675405,0.7428830409657639
387,90,60,83.75,4.0296666666666665,1.0,41.166666666666664,23.0,60.75,17.0,8.0,3.0,10.0,6.0,23.0,0.0,17.0,37.0,42.0,46.0,48.0,37.0,0.0,0.2219432422675405,0.7428830409657639
388,90,90,74.0,4.118333333333333,1.0,45.583333333333336,23.0,51.0,17.0,8.0,3.0,10.0,6.0,23.0,0.0,17.0,37.0,42.0,46.0,48.0,37.0,0.0,0.2219432422675405,0.7428830409657639
389,90,120,37.333333333333336,3.9619166666666668,0.8333333333333334,47.75,23.0,14.333333333333336,17.0,8.0,3.0,10.0,6.0,23.0,0.0,17.0,37.0,42.0,46.0,48.0,37.0,0.0,0.2219432422675405,0.7428830409657639
390,90,150,26.75,4.044416666666667,0.8333333333333334,40.666666666666664,23.0,3.75,17.0,8.0,3.0,10.0,6.0,23.0,0.0,17.0,37.0,42.0,46.0,48.0,37.0,0.0,0.2219432422675405,0.7428830409657639
391,90,180,23.0,3.8825000000000003,0.5,31.666666666666668,23.0,0.0,17.0,8.0,3.0,10.0,6.0,23.0,0.0,17.0,37.0,42.0,46.0,48.0,37.0,0.0,0.2219432422675405,0.7428830409657639
392,92,0,86.33333333333333,2.621583333333333,1.0,50.75,24.916666666666668,61.41666666666666,14.0,18.0,13.0,11.0,11.0,19.0,8.0,34.0,33.0,30.0,42.0,25.0,38.0,7.0,0.1192467089260156,0.5836529464129806
393,92,30,78.41666666666667,2.463,1.0,27.583333333333332,24.916666666666668,53.5,14.0,18.0,13.0,11.0,11.0,19.0,8.0,34.0,33.0,30.0,42.0,25.0,38.0,7.0,0.1192467089260156,0.5836529464129806
394,92,60,70.33333333333333,2.9790000000000005,0.9166666666666666,49.416666666666664,24.916666666666668,45.41666666666666,14.0,18.0,13.0,11.0,11.0,19.0,8.0,34.0,33.0,30.0,42.0,25.0,38.0,7.0,0.1192467089260156,0.5836529464129806
395,92,90,66.5,2.4479166666666665,1.0,51.75,24.916666666666668,41.58333333333333,14.0,18.0,13.0,11.0,11.0,19.0,8.0,34.0,33.0,30.0,42.0,25.0,38.0,7.0,0.1192467089260156,0.5836529464129806
396,92,120,37.333333333333336,3.0925,0.75,22.666666666666668,24.916666666666668,12.416666666666668,14.0,18.0,13.0,11.0,11.0,19.0,8.0,34.0,33.0,30.0,42.0,25.0,38.0,7.0,0.1192467089260156,0.5836529464129806
397,92,150,30.166666666666668,2.525333333333333,0.6666666666666666,48.333333333333336,24.916666666666668,5.25,14.0,18.0,13.0,11.0,11.0,19.0,8.0,34.0,33.0,30.0,42.0,25.0,38.0,7.0,0.1192467089260156,0.5836529464129806
398,92,180,24.916666666666668,2.6495,0.5,40.0,24.916666666666668,0.0,14.0,18.0,13.0,11.0,11.0,19.0,8.0,34.0,33.0,30.0,42.0,25.0,38.0,7.0,0.1192467089260156,0.5836529464129806
399,93,0,90.25,2.9114166666666663,1.0,35.25,35.75,54.5,11.0,10.0,1.0,2.0,3.0,22.0,1.0,19.0,31.0,36.0,45.0,60.0,26.0,5.0,0.2111973523796189,0.593602245927187
400,93,30,85.83333333333333,3.064666666666667,1.0,54.916666666666664,35.75,50.08333333333333,11.0,10.0,1.0,2.0,3.0,22.0,1.0,19.0,31.0,36.0,45.0,60.0,26.0,5.0,0.2111973523796189,0.593602245927187
401,93,60,88.0,3.0674166666666665,1.0,39.666666666666664,35.75,52.25,11.0,10.0,1.0,2.0,3.0,22.0,1.0,19.0,31.0,36.0,45.0,60.0,26.0,5.0,0.2111973523796189,0.593602245927187
402,93,90,79.66666666666667,2.7888333333333333,1.0,34.5,35.75,43.91666666666667,11.0,10.0,1.0,2.0,3.0,22.0,1.0,19.0,31.0,36.0,45.0,60.0,26.0,5.0,0.2111973523796189,0.593602245927187
403,93,120,64.41666666666667,2.855583333333333,0.8333333333333334,49.583333333333336,35.75,28.66666666666667,11.0,10.0,1.0,2.0,3.0,22.0,1.0,19.0,31.0,36.0,45.0,60.0,26.0,5.0,0.2111973523796189,0.593602245927187
404,93,150,30.083333333333332,3.263833333333333,0.75,36.083333333333336,35.75,-5.666666666666668,11.0,10.0,1.0,2.0,3.0,22.0,1.0,19.0,31.0,36.0,45.0,60.0,26.0,5.0,0.2111973523796189,0.593602245927187
405,93,180,35.75,3.217166666666667,0.5833333333333334,40.5,35.75,0.0,11.0,10.0,1.0,2.0,3.0,22.0,1.0,19.0,31.0,36.0,45.0,60.0,26.0,5.0,0.2111973523796189,0.593602245927187
406,94,0,92.75,3.6449166666666666,1.0,34.833333333333336,16.0,76.75,10.0,11.0,9.0,21.0,7.0,25.0,3.0,23.0,35.0,38.0,38.0,50.0,42.0,2.0,0.1096971839656915,0.7372263965260208
407,94,30,89.41666666666667,3.4924999999999997,1.0,36.0,16.0,73.41666666666667,10.0,11.0,9.0,21.0,7.0,25.0,3.0,23.0,35.0,38.0,38.0,50.0,42.0,2.0,0.1096971839656915,0.7372263965260208
408,94,60,78.91666666666667,3.919083333333333,1.0,44.333333333333336,16.0,62.91666666666667,10.0,11.0,9.0,21.0,7.0,25.0,3.0,23.0,35.0,38.0,38.0,50.0,42.0,2.0,0.1096971839656915,0.7372263965260208
409,94,90,72.08333333333333,3.5682500000000004,0.9166666666666666,39.333333333333336,16.0,56.08333333333333,10.0,11.0,9.0,21.0,7.0,25.0,3.0,23.0,35.0,38.0,38.0,50.0,42.0,2.0,0.1096971839656915,0.7372263965260208
410,94,120,51.5,3.90925,0.8333333333333334,42.25,16.0,35.5,10.0,11.0,9.0,21.0,7.0,25.0,3.0,23.0,35.0,38.0,38.0,50.0,42.0,2.0,0.1096971839656915,0.7372263965260208
411,94,150,17.75,4.27325,0.6666666666666666,46.75,16.0,1.75,10.0,11.0,9.0,21.0,7.0,25.0,3.0,23.0,35.0,38.0,38.0,50.0,42.0,2.0,0.1096971839656915,0.7372263965260208
412,94,180,16.0,4.381166666666666,0.5,47.0,16.0,0.0,10.0,11.0,9.0,21.0,7.0,25.0,3.0,23.0,35.0,38.0,38.0,50.0,42.0,2.0,0.1096971839656915,0.7372263965260208
413,96,0,99.58333333333333,2.0370833333333334,1.0,40.083333333333336,29.833333333333332,69.75,16.0,17.0,5.0,12.0,5.0,26.0,1.0,21.0,33.0,43.0,45.0,56.0,38.0,2.0,0.2251165794210642,0.7587531619816285
414,96,30,99.33333333333333,2.1976666666666667,1.0,51.0,29.833333333333332,69.5,16.0,17.0,5.0,12.0,5.0,26.0,1.0,21.0,33.0,43.0,45.0,56.0,38.0,2.0,0.2251165794210642,0.7587531619816285
415,96,60,89.0,2.128833333333333,1.0,42.416666666666664,29.833333333333332,59.16666666666667,16.0,17.0,5.0,12.0,5.0,26.0,1.0,21.0,33.0,43.0,45.0,56.0,38.0,2.0,0.2251165794210642,0.7587531619816285
416,96,90,72.58333333333333,2.2718333333333334,1.0,44.333333333333336,29.833333333333332,42.75,16.0,17.0,5.0,12.0,5.0,26.0,1.0,21.0,33.0,43.0,45.0,56.0,38.0,2.0,0.2251165794210642,0.7587531619816285
417,96,120,44.583333333333336,2.65925,0.9166666666666666,43.25,29.833333333333332,14.750000000000004,16.0,17.0,5.0,12.0,5.0,26.0,1.0,21.0,33.0,43.0,45.0,56.0,38.0,2.0,0.2251165794210642,0.7587531619816285
418,96,150,22.083333333333332,2.6326666666666667,0.4166666666666667,41.0,29.833333333333332,-7.75,16.0,17.0,5.0,12.0,5.0,26.0,1.0,21.0,33.0,43.0,45.0,56.0,38.0,2.0,0.2251165794210642,0.7587531619816285
419,96,180,29.833333333333332,2.6245,0.5,28.416666666666668,29.833333333333332,0.0,16.0,17.0,5.0,12.0,5.0,26.0,1.0,21.0,33.0,43.0,45.0,56.0,38.0,2.0,0.2251165794210642,0.7587531619816285
420,98,0,83.83333333333333,2.8682499999999997,1.0,46.916666666666664,52.5,31.33333333333333,13.0,10.0,9.0,12.0,9.0,29.0,0.0,23.0,39.0,42.0,47.0,52.0,34.0,3.0,0.3303801190921558,0.3388195628102466
421,98,30,82.66666666666667,2.9163333333333337,1.0,36.916666666666664,52.5,30.16666666666667,13.0,10.0,9.0,12.0,9.0,29.0,0.0,23.0,39.0,42.0,47.0,52.0,34.0,3.0,0.3303801190921558,0.3388195628102466
422,98,60,75.83333333333333,2.77875,1.0,42.25,52.5,23.33333333333333,13.0,10.0,9.0,12.0,9.0,29.0,0.0,23.0,39.0,42.0,47.0,52.0,34.0,3.0,0.3303801190921558,0.3388195628102466
423,98,90,72.16666666666667,3.2325,0.9166666666666666,32.083333333333336,52.5,19.66666666666667,13.0,10.0,9.0,12.0,9.0,29.0,0.0,23.0,39.0,42.0,47.0,52.0,34.0,3.0,0.3303801190921558,0.3388195628102466
424,98,120,58.166666666666664,3.2838333333333334,0.9166666666666666,47.166666666666664,52.5,5.666666666666664,13.0,10.0,9.0,12.0,9.0,29.0,0.0,23.0,39.0,42.0,47.0,52.0,34.0,3.0,0.3303801190921558,0.3388195628102466
425,98,150,48.75,3.0024166666666665,0.5833333333333334,48.916666666666664,52.5,-3.75,13.0,10.0,9.0,12.0,9.0,29.0,0.0,23.0,39.0,42.0,47.0,52.0,34.0,3.0,0.3303801190921558,0.3388195628102466
426,98,180,52.5,3.2588333333333335,0.5,36.25,52.5,0.0,13.0,10.0,9.0,12.0,9.0,29.0,0.0,23.0,39.0,42.0,47.0,52.0,34.0,3.0,0.3303801190921558,0.3388195628102466
427,101,0,93.83333333333333,2.5563333333333333,1.0,53.166666666666664,31.545454545454547,62.28787878787878,7.0,12.0,7.0,8.0,6.0,7.0,15.0,49.0,37.0,32.0,42.0,48.0,64.0,1.0,0.101147661090033,0.7250431427069302
428,101,30,77.75,3.8549166666666665,0.9166666666666666,22.75,31.545454545454547,46.20454545454545,7.0,12.0,7.0,8.0,6.0,7.0,15.0,49.0,37.0,32.0,42.0,48.0,64.0,1.0,0.101147661090033,0.7250431427069302
429,101,60,79.54545454545455,4.1338333333333335,0.8333333333333334,42.0,31.545454545454547,48.0,7.0,12.0,7.0,8.0,6.0,7.0,15.0,49.0,37.0,32.0,42.0,48.0,64.0,1.0,0.101147661090033,0.7250431427069302
430,101,90,62.166666666666664,3.3540833333333335,0.9166666666666666,51.25,31.545454545454547,30.621212121212118,7.0,12.0,7.0,8.0,6.0,7.0,15.0,49.0,37.0,32.0,42.0,48.0,64.0,1.0,0.101147661090033,0.7250431427069302
431,101,120,37.166666666666664,2.9194999999999998,0.5833333333333334,38.333333333333336,31.545454545454547,5.6212121212121176,7.0,12.0,7.0,8.0,6.0,7.0,15.0,49.0,37.0,32.0,42.0,48.0,64.0,1.0,0.101147661090033,0.7250431427069302
432,101,150,15.083333333333334,2.7396666666666665,0.6666666666666666,49.333333333333336,31.545454545454547,-16.46212121212121,7.0,12.0,7.0,8.0,6.0,7.0,15.0,49.0,37.0,32.0,42.0,48.0,64.0,1.0,0.101147661090033,0.7250431427069302
433,101,180,31.545454545454547,3.760833333333333,0.8333333333333334,33.666666666666664,31.545454545454547,0.0,7.0,12.0,7.0,8.0,6.0,7.0,15.0,49.0,37.0,32.0,42.0,48.0,64.0,1.0,0.101147661090033,0.7250431427069302
434,102,0,96.16666666666667,2.4780833333333336,1.0,43.583333333333336,10.75,85.41666666666667,23.0,19.0,19.0,19.0,14.0,17.0,19.0,40.0,28.0,32.0,47.0,53.0,43.0,3.0,0.0736359178736079,0.8263027464074646
435,102,30,87.83333333333333,2.4655,1.0,40.166666666666664,10.75,77.08333333333333,23.0,19.0,19.0,19.0,14.0,17.0,19.0,40.0,28.0,32.0,47.0,53.0,43.0,3.0,0.0736359178736079,0.8263027464074646
436,102,60,80.33333333333333,2.4735833333333335,1.0,42.416666666666664,10.75,69.58333333333333,23.0,19.0,19.0,19.0,14.0,17.0,19.0,40.0,28.0,32.0,47.0,53.0,43.0,3.0,0.0736359178736079,0.8263027464074646
437,102,90,58.25,3.079,0.8333333333333334,45.75,10.75,47.5,23.0,19.0,19.0,19.0,14.0,17.0,19.0,40.0,28.0,32.0,47.0,53.0,43.0,3.0,0.0736359178736079,0.8263027464074646
438,102,120,32.25,2.967916666666667,0.8333333333333334,35.75,10.75,21.5,23.0,19.0,19.0,19.0,14.0,17.0,19.0,40.0,28.0,32.0,47.0,53.0,43.0,3.0,0.0736359178736079,0.8263027464074646
439,102,150,11.666666666666666,2.769,0.6666666666666666,37.25,10.75,0.9166666666666661,23.0,19.0,19.0,19.0,14.0,17.0,19.0,40.0,28.0,32.0,47.0,53.0,43.0,3.0,0.0736359178736079,0.8263027464074646
440,102,180,10.75,2.8128333333333333,0.5,45.583333333333336,10.75,0.0,23.0,19.0,19.0,19.0,14.0,17.0,19.0,40.0,28.0,32.0,47.0,53.0,43.0,3.0,0.0736359178736079,0.8263027464074646
441,104,0,100.0,2.9436666666666667,1.0,40.416666666666664,8.333333333333334,91.66666666666667,6.0,4.0,5.0,24.0,7.0,40.0,0.0,12.0,48.0,55.0,53.0,58.0,20.0,10.0,0.00345830917401,0.992184087590748
442,104,30,99.91666666666667,2.8265833333333332,1.0,43.166666666666664,8.333333333333334,91.58333333333334,6.0,4.0,5.0,24.0,7.0,40.0,0.0,12.0,48.0,55.0,53.0,58.0,20.0,10.0,0.00345830917401,0.992184087590748
443,104,60,83.33333333333333,3.0005,1.0,51.916666666666664,8.333333333333334,75.0,6.0,4.0,5.0,24.0,7.0,40.0,0.0,12.0,48.0,55.0,53.0,58.0,20.0,10.0,0.00345830917401,0.992184087590748
444,104,90,66.66666666666667,2.9901666666666666,1.0,42.416666666666664,8.333333333333334,58.333333333333336,6.0,4.0,5.0,24.0,7.0,40.0,0.0,12.0,48.0,55.0,53.0,58.0,20.0,10.0,0.00345830917401,0.992184087590748
445,104,120,16.666666666666668,3.3105833333333337,0.8333333333333334,38.75,8.333333333333334,8.333333333333334,6.0,4.0,5.0,24.0,7.0,40.0,0.0,12.0,48.0,55.0,53.0,58.0,20.0,10.0,0.00345830917401,0.992184087590748
446,104,150,0.0,2.983083333333333,0.75,37.666666666666664,8.333333333333334,-8.333333333333334,6.0,4.0,5.0,24.0,7.0,40.0,0.0,12.0,48.0,55.0,53.0,58.0,20.0,10.0,0.00345830917401,0.992184087590748
447,104,180,8.333333333333334,3.0454166666666667,0.5833333333333334,36.166666666666664,8.333333333333334,0.0,6.0,4.0,5.0,24.0,7.0,40.0,0.0,12.0,48.0,55.0,53.0,58.0,20.0,10.0,0.00345830917401,0.992184087590748
448,105,0,95.91666666666667,2.3768333333333334,1.0,44.583333333333336,30.416666666666668,65.5,9.0,13.0,5.0,11.0,9.0,19.0,6.0,32.0,42.0,44.0,46.0,39.0,47.0,8.0,0.2781483637653078,0.6306250750992296
449,105,30,91.91666666666667,2.27375,1.0,40.833333333333336,30.416666666666668,61.5,9.0,13.0,5.0,11.0,9.0,19.0,6.0,32.0,42.0,44.0,46.0,39.0,47.0,8.0,0.2781483637653078,0.6306250750992296
450,105,60,87.83333333333333,2.3605,1.0,48.166666666666664,30.416666666666668,57.41666666666666,9.0,13.0,5.0,11.0,9.0,19.0,6.0,32.0,42.0,44.0,46.0,39.0,47.0,8.0,0.2781483637653078,0.6306250750992296
451,105,90,74.16666666666667,2.53225,1.0,35.083333333333336,30.416666666666668,43.75,9.0,13.0,5.0,11.0,9.0,19.0,6.0,32.0,42.0,44.0,46.0,39.0,47.0,8.0,0.2781483637653078,0.6306250750992296
452,105,120,55.0,2.791166666666667,1.0,36.083333333333336,30.416666666666668,24.583333333333332,9.0,13.0,5.0,11.0,9.0,19.0,6.0,32.0,42.0,44.0,46.0,39.0,47.0,8.0,0.2781483637653078,0.6306250750992296
453,105,150,34.583333333333336,2.4754166666666664,0.8333333333333334,44.416666666666664,30.416666666666668,4.166666666666668,9.0,13.0,5.0,11.0,9.0,19.0,6.0,32.0,42.0,44.0,46.0,39.0,47.0,8.0,0.2781483637653078,0.6306250750992296
454,105,180,30.416666666666668,2.8225833333333337,0.4166666666666667,41.333333333333336,30.416666666666668,0.0,9.0,13.0,5.0,11.0,9.0,19.0,6.0,32.0,42.0,44.0,46.0,39.0,47.0,8.0,0.2781483637653078,0.6306250750992296
455,106,0,96.41666666666667,3.8090833333333336,0.8333333333333334,48.333333333333336,40.916666666666664,55.50000000000001,10.0,16.0,10.0,14.0,5.0,17.0,2.0,28.0,37.0,38.0,48.0,48.0,43.0,1.0,0.3620031293324078,0.5632246981167912
456,106,30,89.83333333333333,4.179,1.0,35.5,40.916666666666664,48.916666666666664,10.0,16.0,10.0,14.0,5.0,17.0,2.0,28.0,37.0,38.0,48.0,48.0,43.0,1.0,0.3620031293324078,0.5632246981167912
457,106,60,94.41666666666667,3.54675,1.0,47.5,40.916666666666664,53.50000000000001,10.0,16.0,10.0,14.0,5.0,17.0,2.0,28.0,37.0,38.0,48.0,48.0,43.0,1.0,0.3620031293324078,0.5632246981167912
458,106,90,75.0,3.794166666666667,1.0,37.25,40.916666666666664,34.083333333333336,10.0,16.0,10.0,14.0,5.0,17.0,2.0,28.0,37.0,38.0,48.0,48.0,43.0,1.0,0.3620031293324078,0.5632246981167912
459,106,120,54.75,4.136166666666667,0.75,40.25,40.916666666666664,13.833333333333336,10.0,16.0,10.0,14.0,5.0,17.0,2.0,28.0,37.0,38.0,48.0,48.0,43.0,1.0,0.3620031293324078,0.5632246981167912
460,106,150,39.416666666666664,3.7914166666666667,0.8333333333333334,46.666666666666664,40.916666666666664,-1.5,10.0,16.0,10.0,14.0,5.0,17.0,2.0,28.0,37.0,38.0,48.0,48.0,43.0,1.0,0.3620031293324078,0.5632246981167912
461,106,180,40.916666666666664,4.335416666666666,0.4166666666666667,35.0,40.916666666666664,0.0,10.0,16.0,10.0,14.0,5.0,17.0,2.0,28.0,37.0,38.0,48.0,48.0,43.0,1.0,0.3620031293324078,0.5632246981167912
462,107,0,76.41666666666667,3.1460000000000004,1.0,45.333333333333336,40.0,36.41666666666667,9.0,16.0,11.0,11.11111111111111,8.0,20.0,2.0,29.0,40.36363636363637,41.0,43.0,47.0,37.0,5.0,0.1722690523044298,0.3523114276638226
463,107,30,74.83333333333333,3.2748333333333335,0.9166666666666666,36.25,40.0,34.83333333333333,9.0,16.0,11.0,11.11111111111111,8.0,20.0,2.0,29.0,40.36363636363637,41.0,43.0,47.0,37.0,5.0,0.1722690523044298,0.3523114276638226
464,107,60,71.25,2.9559166666666665,1.0,37.166666666666664,40.0,31.25,9.0,16.0,11.0,11.11111111111111,8.0,20.0,2.0,29.0,40.36363636363637,41.0,43.0,47.0,37.0,5.0,0.1722690523044298,0.3523114276638226
465,107,90,65.16666666666667,2.888083333333334,1.0,45.5,40.0,25.16666666666667,9.0,16.0,11.0,11.11111111111111,8.0,20.0,2.0,29.0,40.36363636363637,41.0,43.0,47.0,37.0,5.0,0.1722690523044298,0.3523114276638226
466,107,120,55.5,3.3378333333333337,1.0,43.916666666666664,40.0,15.5,9.0,16.0,11.0,11.11111111111111,8.0,20.0,2.0,29.0,40.36363636363637,41.0,43.0,47.0,37.0,5.0,0.1722690523044298,0.3523114276638226
467,107,150,40.166666666666664,3.18525,0.6666666666666666,36.5,40.0,0.1666666666666643,9.0,16.0,11.0,11.11111111111111,8.0,20.0,2.0,29.0,40.36363636363637,41.0,43.0,47.0,37.0,5.0,0.1722690523044298,0.3523114276638226
468,107,180,40.0,3.3280833333333333,0.6666666666666666,45.833333333333336,40.0,0.0,9.0,16.0,11.0,11.11111111111111,8.0,20.0,2.0,29.0,40.36363636363637,41.0,43.0,47.0,37.0,5.0,0.1722690523044298,0.3523114276638226
469,108,0,100.0,3.186,1.0,29.583333333333332,33.333333333333336,66.66666666666666,8.0,6.0,8.0,12.0,4.0,19.0,7.0,43.0,30.0,38.0,40.0,37.0,41.0,1.0,0.263385236827622,0.7366147619695643
470,108,30,99.75,3.0015,1.0,46.833333333333336,33.333333333333336,66.41666666666666,8.0,6.0,8.0,12.0,4.0,19.0,7.0,43.0,30.0,38.0,40.0,37.0,41.0,1.0,0.263385236827622,0.7366147619695643
471,108,60,99.91666666666667,3.06225,1.0,36.916666666666664,33.333333333333336,66.58333333333334,8.0,6.0,8.0,12.0,4.0,19.0,7.0,43.0,30.0,38.0,40.0,37.0,41.0,1.0,0.263385236827622,0.7366147619695643
472,108,90,97.33333333333333,3.1595833333333334,1.0,40.0,33.333333333333336,63.99999999999999,8.0,6.0,8.0,12.0,4.0,19.0,7.0,43.0,30.0,38.0,40.0,37.0,41.0,1.0,0.263385236827622,0.7366147619695643
473,108,120,74.0,3.16925,0.9166666666666666,55.5,33.333333333333336,40.666666666666664,8.0,6.0,8.0,12.0,4.0,19.0,7.0,43.0,30.0,38.0,40.0,37.0,41.0,1.0,0.263385236827622,0.7366147619695643
474,108,150,26.333333333333332,3.595916666666667,0.25,40.333333333333336,33.333333333333336,-7.0000000000000036,8.0,6.0,8.0,12.0,4.0,19.0,7.0,43.0,30.0,38.0,40.0,37.0,41.0,1.0,0.263385236827622,0.7366147619695643
475,108,180,33.333333333333336,3.2219166666666665,0.4166666666666667,41.333333333333336,33.333333333333336,0.0,8.0,6.0,8.0,12.0,4.0,19.0,7.0,43.0,30.0,38.0,40.0,37.0,41.0,1.0,0.263385236827622,0.7366147619695643
476,111,0,90.08333333333333,2.9403333333333332,1.0,54.916666666666664,25.0,65.08333333333333,16.0,11.0,9.0,16.0,5.0,27.0,0.0,27.0,29.0,38.0,38.0,44.0,57.0,2.0,0.1324364511656446,0.6643129396587519
477,111,30,88.58333333333333,3.3366666666666664,1.0,45.333333333333336,25.0,63.58333333333333,16.0,11.0,9.0,16.0,5.0,27.0,0.0,27.0,29.0,38.0,38.0,44.0,57.0,2.0,0.1324364511656446,0.6643129396587519
478,111,60,83.91666666666667,3.2855000000000003,1.0,38.75,25.0,58.91666666666667,16.0,11.0,9.0,16.0,5.0,27.0,0.0,27.0,29.0,38.0,38.0,44.0,57.0,2.0,0.1324364511656446,0.6643129396587519
479,111,90,68.5,3.2140833333333334,1.0,40.833333333333336,25.0,43.5,16.0,11.0,9.0,16.0,5.0,27.0,0.0,27.0,29.0,38.0,38.0,44.0,57.0,2.0,0.1324364511656446,0.6643129396587519
480,111,120,48.666666666666664,3.230833333333333,0.9166666666666666,41.833333333333336,25.0,23.666666666666664,16.0,11.0,9.0,16.0,5.0,27.0,0.0,27.0,29.0,38.0,38.0,44.0,57.0,2.0,0.1324364511656446,0.6643129396587519
481,111,150,22.0,3.3486666666666665,0.75,39.583333333333336,25.0,-3.0,16.0,11.0,9.0,16.0,5.0,27.0,0.0,27.0,29.0,38.0,38.0,44.0,57.0,2.0,0.1324364511656446,0.6643129396587519
482,111,180,25.0,3.32975,0.6666666666666666,29.25,25.0,0.0,16.0,11.0,9.0,16.0,5.0,27.0,0.0,27.0,29.0,38.0,38.0,44.0,57.0,2.0,0.1324364511656446,0.6643129396587519
483,112,0,100.0,2.5530833333333334,1.0,41.0,25.083333333333332,74.91666666666667,7.0,14.0,4.0,17.0,1.0,31.0,0.0,23.0,52.0,53.0,48.0,56.72727272727273,26.0,5.0,0.2551823588936277,0.7447970085212545
484,112,30,100.0,2.889,1.0,30.5,25.083333333333332,74.91666666666667,7.0,14.0,4.0,17.0,1.0,31.0,0.0,23.0,52.0,53.0,48.0,56.72727272727273,26.0,5.0,0.2551823588936277,0.7447970085212545
485,112,60,100.0,2.7388333333333335,1.0,43.416666666666664,25.083333333333332,74.91666666666667,7.0,14.0,4.0,17.0,1.0,31.0,0.0,23.0,52.0,53.0,48.0,56.72727272727273,26.0,5.0,0.2551823588936277,0.7447970085212545
486,112,90,100.0,2.9728333333333334,1.0,48.5,25.083333333333332,74.91666666666667,7.0,14.0,4.0,17.0,1.0,31.0,0.0,23.0,52.0,53.0,48.0,56.72727272727273,26.0,5.0,0.2551823588936277,0.7447970085212545
487,112,120,66.91666666666667,2.785,0.9166666666666666,41.166666666666664,25.083333333333332,41.83333333333334,7.0,14.0,4.0,17.0,1.0,31.0,0.0,23.0,52.0,53.0,48.0,56.72727272727273,26.0,5.0,0.2551823588936277,0.7447970085212545
488,112,150,33.333333333333336,2.6666666666666665,0.5833333333333334,39.833333333333336,25.083333333333332,8.250000000000004,7.0,14.0,4.0,17.0,1.0,31.0,0.0,23.0,52.0,53.0,48.0,56.72727272727273,26.0,5.0,0.2551823588936277,0.7447970085212545
489,112,180,25.083333333333332,2.6801666666666666,0.5833333333333334,46.083333333333336,25.083333333333332,0.0,7.0,14.0,4.0,17.0,1.0,31.0,0.0,23.0,52.0,53.0,48.0,56.72727272727273,26.0,5.0,0.2551823588936277,0.7447970085212545
490,113,0,98.75,2.8955,1.0,42.333333333333336,6.583333333333333,92.16666666666667,26.0,30.0,24.0,26.0,23.0,17.0,8.0,57.0,28.0,26.0,45.0,58.0,54.0,4.0,0.052192915226745,0.9223445937225694
491,113,30,98.75,2.5635833333333333,1.0,34.916666666666664,6.583333333333333,92.16666666666667,26.0,30.0,24.0,26.0,23.0,17.0,8.0,57.0,28.0,26.0,45.0,58.0,54.0,4.0,0.052192915226745,0.9223445937225694
492,113,60,93.33333333333333,2.58975,1.0,48.916666666666664,6.583333333333333,86.75,26.0,30.0,24.0,26.0,23.0,17.0,8.0,57.0,28.0,26.0,45.0,58.0,54.0,4.0,0.052192915226745,0.9223445937225694
493,113,90,82.41666666666667,2.6933333333333334,1.0,31.25,6.583333333333333,75.83333333333334,26.0,30.0,24.0,26.0,23.0,17.0,8.0,57.0,28.0,26.0,45.0,58.0,54.0,4.0,0.052192915226745,0.9223445937225694
494,113,120,40.416666666666664,2.752333333333333,1.0,51.583333333333336,6.583333333333333,33.83333333333333,26.0,30.0,24.0,26.0,23.0,17.0,8.0,57.0,28.0,26.0,45.0,58.0,54.0,4.0,0.052192915226745,0.9223445937225694
495,113,150,5.916666666666667,2.8794166666666663,0.6666666666666666,42.583333333333336,6.583333333333333,-0.6666666666666661,26.0,30.0,24.0,26.0,23.0,17.0,8.0,57.0,28.0,26.0,45.0,58.0,54.0,4.0,0.052192915226745,0.9223445937225694
496,113,180,6.583333333333333,2.904333333333333,0.6666666666666666,38.916666666666664,6.583333333333333,0.0,26.0,30.0,24.0,26.0,23.0,17.0,8.0,57.0,28.0,26.0,45.0,58.0,54.0,4.0,0.052192915226745,0.9223445937225694
497,114,0,98.91666666666667,3.1215833333333336,1.0,36.666666666666664,10.416666666666666,88.5,26.0,22.0,14.0,9.0,9.0,3.0,20.0,54.0,16.0,43.0,40.0,30.0,78.0,0.0,0.0536144709329644,0.924171090479664
498,114,30,98.16666666666667,3.164,1.0,47.166666666666664,10.416666666666666,87.75,26.0,22.0,14.0,9.0,9.0,3.0,20.0,54.0,16.0,43.0,40.0,30.0,78.0,0.0,0.0536144709329644,0.924171090479664
499,114,60,96.91666666666667,3.062583333333333,1.0,38.0,10.416666666666666,86.5,26.0,22.0,14.0,9.0,9.0,3.0,20.0,54.0,16.0,43.0,40.0,30.0,78.0,0.0,0.0536144709329644,0.924171090479664
500,114,90,69.91666666666667,3.5124166666666667,1.0,53.25,10.416666666666666,59.50000000000001,26.0,22.0,14.0,9.0,9.0,3.0,20.0,54.0,16.0,43.0,40.0,30.0,78.0,0.0,0.0536144709329644,0.924171090479664
