,stim_file,condition,subtlety,slider,RT,accuracy,subID,trial_ind,aq_social_skill,aq_attn_switch,aq_img,aq_attn_to_det,aq_comm,panas_pos,panas_neg,ffi_neuroticism,ffi_extraversion,ffi_openness,ffi_agreeableness,ffi_conscientiousness,ucla,friend_num,bias,amplitude
0,7d329546-ecf4-4612-8f00-c127c77d5d6c,chase,60,100.0,2.264,1,265,0,28.0,22.0,10.0,14.0,20.0,9.0,23.0,54.0,23.0,42.0,42.0,27.0,67.0,3.0,0.1232791376760382,0.6278015024181465
1,68be0cf8-ea92-4566-b84a-cbd60b2e5547,wander,180,19.0,3.469,1,265,1,28.0,22.0,10.0,14.0,20.0,9.0,23.0,54.0,23.0,42.0,42.0,27.0,67.0,3.0,0.1232791376760382,0.6278015024181465
2,884bc951-67a6-42bd-8ea7-ece0c8745d3f,chase,0,100.0,2.826,1,265,2,28.0,22.0,10.0,14.0,20.0,9.0,23.0,54.0,23.0,42.0,42.0,27.0,67.0,3.0,0.1232791376760382,0.6278015024181465
3,24724e9a-8a79-4ab8-a58f-e007c5d00714,chase,120,95.0,3.256,1,265,3,28.0,22.0,10.0,14.0,20.0,9.0,23.0,54.0,23.0,42.0,42.0,27.0,67.0,3.0,0.1232791376760382,0.6278015024181465
4,cd9d4d31-b57e-4c3d-86c6-267ce9eec948,chase,60,100.0,2.497,1,265,4,28.0,22.0,10.0,14.0,20.0,9.0,23.0,54.0,23.0,42.0,42.0,27.0,67.0,3.0,0.1232791376760382,0.6278015024181465
5,12ba80f8-98cb-4c76-836d-72c2d6364a8e,chase,120,14.0,2.873,1,265,5,28.0,22.0,10.0,14.0,20.0,9.0,23.0,54.0,23.0,42.0,42.0,27.0,67.0,3.0,0.1232791376760382,0.6278015024181465
6,c5cf3c4d-84e7-4c90-a33b-9d7db4b01300,chase,0,87.0,3.684,1,265,6,28.0,22.0,10.0,14.0,20.0,9.0,23.0,54.0,23.0,42.0,42.0,27.0,67.0,3.0,0.1232791376760382,0.6278015024181465
7,977e0607-6332-4db4-ab12-9d17dce4dc85,wander,180,10.0,2.93,1,265,7,28.0,22.0,10.0,14.0,20.0,9.0,23.0,54.0,23.0,42.0,42.0,27.0,67.0,3.0,0.1232791376760382,0.6278015024181465
8,e4dd3e31-b4f2-4f66-9e70-0665b6bcd089,chase,30,91.0,2.756,1,265,8,28.0,22.0,10.0,14.0,20.0,9.0,23.0,54.0,23.0,42.0,42.0,27.0,67.0,3.0,0.1232791376760382,0.6278015024181465
9,18c4991b-f4d6-47a6-b29a-81f425410c0e,chase,120,23.0,2.4,1,265,9,28.0,22.0,10.0,14.0,20.0,9.0,23.0,54.0,23.0,42.0,42.0,27.0,67.0,3.0,0.1232791376760382,0.6278015024181465
10,5dbc75c6-6973-4ae1-aaf0-d3b84feb4723,wander,180,9.0,3.136,1,265,10,28.0,22.0,10.0,14.0,20.0,9.0,23.0,54.0,23.0,42.0,42.0,27.0,67.0,3.0,0.1232791376760382,0.6278015024181465
11,b70d0259-cb69-48f1-b026-46452cf6e70f,wander,180,36.0,2.539,1,265,11,28.0,22.0,10.0,14.0,20.0,9.0,23.0,54.0,23.0,42.0,42.0,27.0,67.0,3.0,0.1232791376760382,0.6278015024181465
12,4fb58057-109b-400f-8b1d-d9afc6926a6c,chase,60,71.0,3.43,1,265,12,28.0,22.0,10.0,14.0,20.0,9.0,23.0,54.0,23.0,42.0,42.0,27.0,67.0,3.0,0.1232791376760382,0.6278015024181465
13,86edbcec-0b0a-41d9-9c9e-d5df43732237,chase,30,80.0,2.962,1,265,13,28.0,22.0,10.0,14.0,20.0,9.0,23.0,54.0,23.0,42.0,42.0,27.0,67.0,3.0,0.1232791376760382,0.6278015024181465
14,411043c2-72c5-48c5-8cb7-febcebc40f98,chase,30,94.0,2.66,1,265,14,28.0,22.0,10.0,14.0,20.0,9.0,23.0,54.0,23.0,42.0,42.0,27.0,67.0,3.0,0.1232791376760382,0.6278015024181465
15,64e6dcf6-35e5-46ef-8d1c-80a6786a24f6,chase,90,73.0,2.408,1,265,15,28.0,22.0,10.0,14.0,20.0,9.0,23.0,54.0,23.0,42.0,42.0,27.0,67.0,3.0,0.1232791376760382,0.6278015024181465
16,93865245-a3be-41b2-a17e-29b2b6043800,chase,90,68.0,2.734,1,265,16,28.0,22.0,10.0,14.0,20.0,9.0,23.0,54.0,23.0,42.0,42.0,27.0,67.0,3.0,0.1232791376760382,0.6278015024181465
17,2667cf6b-8ba8-4919-a871-ecd9b2852bce,chase,120,23.0,2.744,1,265,17,28.0,22.0,10.0,14.0,20.0,9.0,23.0,54.0,23.0,42.0,42.0,27.0,67.0,3.0,0.1232791376760382,0.6278015024181465
18,8af66fd7-6ab4-47a3-a88c-02fd34772ac6,wander,180,0.0,2.473,1,265,18,28.0,22.0,10.0,14.0,20.0,9.0,23.0,54.0,23.0,42.0,42.0,27.0,67.0,3.0,0.1232791376760382,0.6278015024181465
19,a763322d-d8ef-4998-b3d2-05767e0273f2,chase,150,19.0,3.866,1,265,19,28.0,22.0,10.0,14.0,20.0,9.0,23.0,54.0,23.0,42.0,42.0,27.0,67.0,3.0,0.1232791376760382,0.6278015024181465
20,cf6ad30a-98ab-45d8-98d9-92352096afee,chase,30,91.0,3.493,1,265,20,28.0,22.0,10.0,14.0,20.0,9.0,23.0,54.0,23.0,42.0,42.0,27.0,67.0,3.0,0.1232791376760382,0.6278015024181465
21,5ce017a9-f595-403c-a861-53e49993751a,wander,180,28.0,3.034,1,265,21,28.0,22.0,10.0,14.0,20.0,9.0,23.0,54.0,23.0,42.0,42.0,27.0,67.0,3.0,0.1232791376760382,0.6278015024181465
22,1d35e834-4947-46b2-9cbd-816ea4587c6f,wander,180,26.0,3.178,1,265,22,28.0,22.0,10.0,14.0,20.0,9.0,23.0,54.0,23.0,42.0,42.0,27.0,67.0,3.0,0.1232791376760382,0.6278015024181465
23,c51864d5-4cd9-435e-8d8b-210c8454248a,chase,0,100.0,2.508,1,265,23,28.0,22.0,10.0,14.0,20.0,9.0,23.0,54.0,23.0,42.0,42.0,27.0,67.0,3.0,0.1232791376760382,0.6278015024181465
24,738dba2c-d7cb-488e-b971-0dc50c74bf4b,chase,30,100.0,2.43,1,265,24,28.0,22.0,10.0,14.0,20.0,9.0,23.0,54.0,23.0,42.0,42.0,27.0,67.0,3.0,0.1232791376760382,0.6278015024181465
25,9d561139-a905-406b-83a0-38ea62293ed9,chase,90,67.0,2.339,1,265,25,28.0,22.0,10.0,14.0,20.0,9.0,23.0,54.0,23.0,42.0,42.0,27.0,67.0,3.0,0.1232791376760382,0.6278015024181465
26,42d1593c-1903-4c06-8304-6d2b29c5be37,chase,30,92.0,2.861,1,265,26,28.0,22.0,10.0,14.0,20.0,9.0,23.0,54.0,23.0,42.0,42.0,27.0,67.0,3.0,0.1232791376760382,0.6278015024181465
27,45126725-a7eb-4318-86c4-1af84082e8b8,chase,30,84.0,3.059,1,265,27,28.0,22.0,10.0,14.0,20.0,9.0,23.0,54.0,23.0,42.0,42.0,27.0,67.0,3.0,0.1232791376760382,0.6278015024181465
28,981221b7-2aa0-476c-b101-390d6cc3dd1a,chase,120,69.0,2.669,1,265,28,28.0,22.0,10.0,14.0,20.0,9.0,23.0,54.0,23.0,42.0,42.0,27.0,67.0,3.0,0.1232791376760382,0.6278015024181465
29,1c695094-312c-450a-ac7f-f994dabb958d,wander,180,28.0,2.714,1,265,29,28.0,22.0,10.0,14.0,20.0,9.0,23.0,54.0,23.0,42.0,42.0,27.0,67.0,3.0,0.1232791376760382,0.6278015024181465
30,ae7d3eb8-dc5d-447b-b5c5-9b30fb3b8314,chase,60,76.0,3.277,1,265,30,28.0,22.0,10.0,14.0,20.0,9.0,23.0,54.0,23.0,42.0,42.0,27.0,67.0,3.0,0.1232791376760382,0.6278015024181465
31,81f068e9-cbbc-4d88-8e31-206979547986,chase,120,78.0,3.386,1,265,31,28.0,22.0,10.0,14.0,20.0,9.0,23.0,54.0,23.0,42.0,42.0,27.0,67.0,3.0,0.1232791376760382,0.6278015024181465
32,58ff2cb6-e661-4be4-945c-d3f9ab5180c6,chase,150,71.0,2.95,1,265,32,28.0,22.0,10.0,14.0,20.0,9.0,23.0,54.0,23.0,42.0,42.0,27.0,67.0,3.0,0.1232791376760382,0.6278015024181465
33,3dbf8de7-1bf7-4a43-a5e3-4366a94ea690,chase,90,73.0,2.863,1,265,33,28.0,22.0,10.0,14.0,20.0,9.0,23.0,54.0,23.0,42.0,42.0,27.0,67.0,3.0,0.1232791376760382,0.6278015024181465
34,67a027b6-67e1-4784-aaad-ab48b5731cca,chase,0,82.0,2.84,1,265,34,28.0,22.0,10.0,14.0,20.0,9.0,23.0,54.0,23.0,42.0,42.0,27.0,67.0,3.0,0.1232791376760382,0.6278015024181465
35,6d712780-43b4-49f9-9bb8-c6ef920b78bd,chase,0,82.0,3.347,1,265,35,28.0,22.0,10.0,14.0,20.0,9.0,23.0,54.0,23.0,42.0,42.0,27.0,67.0,3.0,0.1232791376760382,0.6278015024181465
36,f9e978d5-51e5-401a-8c9a-df747f2dec53,chase,0,78.0,3.362,1,265,36,28.0,22.0,10.0,14.0,20.0,9.0,23.0,54.0,23.0,42.0,42.0,27.0,67.0,3.0,0.1232791376760382,0.6278015024181465
37,c4c5c990-2898-4b30-8454-9be48985cf75,chase,150,29.0,2.479,1,265,37,28.0,22.0,10.0,14.0,20.0,9.0,23.0,54.0,23.0,42.0,42.0,27.0,67.0,3.0,0.1232791376760382,0.6278015024181465
38,6164475a-8bff-4ee0-8fef-043a34cd7da5,chase,120,81.0,2.888,1,265,38,28.0,22.0,10.0,14.0,20.0,9.0,23.0,54.0,23.0,42.0,42.0,27.0,67.0,3.0,0.1232791376760382,0.6278015024181465
39,184c8795-2f00-4c7d-bc10-bd7de3066a20,chase,60,85.0,2.874,1,265,39,28.0,22.0,10.0,14.0,20.0,9.0,23.0,54.0,23.0,42.0,42.0,27.0,67.0,3.0,0.1232791376760382,0.6278015024181465
40,1a3da098-0a3a-43af-af4a-a9fad5adcce6,chase,90,84.0,2.042,1,265,40,28.0,22.0,10.0,14.0,20.0,9.0,23.0,54.0,23.0,42.0,42.0,27.0,67.0,3.0,0.1232791376760382,0.6278015024181465
41,599df54c-434d-46db-a56a-5698a4ae9a9e,chase,150,31.0,2.377,0,265,41,28.0,22.0,10.0,14.0,20.0,9.0,23.0,54.0,23.0,42.0,42.0,27.0,67.0,3.0,0.1232791376760382,0.6278015024181465
42,b3b1ce6f-50f4-4922-80d2-b53f06819db2,chase,120,79.0,2.529,1,265,42,28.0,22.0,10.0,14.0,20.0,9.0,23.0,54.0,23.0,42.0,42.0,27.0,67.0,3.0,0.1232791376760382,0.6278015024181465
43,7f76ce9f-1463-4e78-87a4-6a54cd80ee88,chase,90,76.0,2.519,1,265,43,28.0,22.0,10.0,14.0,20.0,9.0,23.0,54.0,23.0,42.0,42.0,27.0,67.0,3.0,0.1232791376760382,0.6278015024181465
44,7ef8daac-db75-4ee8-a071-f88ace7368fa,chase,60,93.0,2.882,1,265,44,28.0,22.0,10.0,14.0,20.0,9.0,23.0,54.0,23.0,42.0,42.0,27.0,67.0,3.0,0.1232791376760382,0.6278015024181465
45,068dfd59-6b9c-4eca-b60c-7eb73cc72305,chase,0,97.0,2.06,1,265,45,28.0,22.0,10.0,14.0,20.0,9.0,23.0,54.0,23.0,42.0,42.0,27.0,67.0,3.0,0.1232791376760382,0.6278015024181465
46,46975d67-ead1-4d29-93d2-9fbd40dad49d,wander,180,15.0,2.572,0,265,46,28.0,22.0,10.0,14.0,20.0,9.0,23.0,54.0,23.0,42.0,42.0,27.0,67.0,3.0,0.1232791376760382,0.6278015024181465
47,e5de8a7b-b080-44aa-9279-c42f7862e210,chase,0,85.0,3.158,1,265,47,28.0,22.0,10.0,14.0,20.0,9.0,23.0,54.0,23.0,42.0,42.0,27.0,67.0,3.0,0.1232791376760382,0.6278015024181465
48,0ea38b84-b2dc-4072-b4b8-3dce5f53debc,chase,120,64.0,2.22,1,265,48,28.0,22.0,10.0,14.0,20.0,9.0,23.0,54.0,23.0,42.0,42.0,27.0,67.0,3.0,0.1232791376760382,0.6278015024181465
49,a680f7c6-9605-4481-a14d-c24d8d7b99bc,chase,30,74.0,2.677,1,265,49,28.0,22.0,10.0,14.0,20.0,9.0,23.0,54.0,23.0,42.0,42.0,27.0,67.0,3.0,0.1232791376760382,0.6278015024181465
50,2cf66fb7-ab1d-466b-be40-d9f856dc213f,wander,180,6.0,3.145,1,265,50,28.0,22.0,10.0,14.0,20.0,9.0,23.0,54.0,23.0,42.0,42.0,27.0,67.0,3.0,0.1232791376760382,0.6278015024181465
51,2d4bdbd9-d1de-4787-8cc8-a317b9d4c68d,wander,180,22.0,1.757,1,265,51,28.0,22.0,10.0,14.0,20.0,9.0,23.0,54.0,23.0,42.0,42.0,27.0,67.0,3.0,0.1232791376760382,0.6278015024181465
52,cd35aaa0-2e49-4c68-9db3-f26fb9be29c5,chase,0,99.0,1.713,1,265,52,28.0,22.0,10.0,14.0,20.0,9.0,23.0,54.0,23.0,42.0,42.0,27.0,67.0,3.0,0.1232791376760382,0.6278015024181465
53,7da2bf99-2525-456c-889d-33e4d57cefac,chase,150,21.0,2.298,1,265,53,28.0,22.0,10.0,14.0,20.0,9.0,23.0,54.0,23.0,42.0,42.0,27.0,67.0,3.0,0.1232791376760382,0.6278015024181465
54,c8a1258a-1920-42bf-98e8-6c2dcc03a258,chase,60,80.0,3.129,1,265,54,28.0,22.0,10.0,14.0,20.0,9.0,23.0,54.0,23.0,42.0,42.0,27.0,67.0,3.0,0.1232791376760382,0.6278015024181465
55,dbce0a8f-ba45-4265-a60e-b98acd0e16d0,chase,150,37.0,2.552,1,265,55,28.0,22.0,10.0,14.0,20.0,9.0,23.0,54.0,23.0,42.0,42.0,27.0,67.0,3.0,0.1232791376760382,0.6278015024181465
56,b75e278a-0fbd-474b-92b0-7038934dda4b,chase,30,97.0,2.138,1,265,56,28.0,22.0,10.0,14.0,20.0,9.0,23.0,54.0,23.0,42.0,42.0,27.0,67.0,3.0,0.1232791376760382,0.6278015024181465
57,2383c97c-89dc-495f-8ec8-8a517a45ca6c,chase,90,78.0,2.664,1,265,57,28.0,22.0,10.0,14.0,20.0,9.0,23.0,54.0,23.0,42.0,42.0,27.0,67.0,3.0,0.1232791376760382,0.6278015024181465
58,c1b6f573-136b-414a-a6ec-8628f66a51e1,chase,150,24.0,2.819,1,265,58,28.0,22.0,10.0,14.0,20.0,9.0,23.0,54.0,23.0,42.0,42.0,27.0,67.0,3.0,0.1232791376760382,0.6278015024181465
59,f1ea4cb7-98d0-45a4-8269-16f1aebf05e3,chase,30,79.0,2.088,1,265,59,28.0,22.0,10.0,14.0,20.0,9.0,23.0,54.0,23.0,42.0,42.0,27.0,67.0,3.0,0.1232791376760382,0.6278015024181465
60,0ea90462-f5e2-47a7-bd4b-2ea1c0bb7293,chase,60,71.0,6.553,0,265,60,28.0,22.0,10.0,14.0,20.0,9.0,23.0,54.0,23.0,42.0,42.0,27.0,67.0,3.0,0.1232791376760382,0.6278015024181465
61,f8c01499-8009-448b-9476-a38a582d3db6,chase,150,38.0,2.877,1,265,61,28.0,22.0,10.0,14.0,20.0,9.0,23.0,54.0,23.0,42.0,42.0,27.0,67.0,3.0,0.1232791376760382,0.6278015024181465
62,bc18f2bb-8e1a-4fcf-bc63-d56da485f828,chase,90,66.0,2.412,1,265,62,28.0,22.0,10.0,14.0,20.0,9.0,23.0,54.0,23.0,42.0,42.0,27.0,67.0,3.0,0.1232791376760382,0.6278015024181465
63,496c052f-24cd-4731-b1a3-dc6a8076719b,chase,120,59.0,1.857,1,265,63,28.0,22.0,10.0,14.0,20.0,9.0,23.0,54.0,23.0,42.0,42.0,27.0,67.0,3.0,0.1232791376760382,0.6278015024181465
64,f4c4b671-d1de-4b8d-adad-ab6e05900d81,chase,90,57.0,1.958,1,265,64,28.0,22.0,10.0,14.0,20.0,9.0,23.0,54.0,23.0,42.0,42.0,27.0,67.0,3.0,0.1232791376760382,0.6278015024181465
65,92158ea9-b156-4e87-a2e3-ff0845033b9c,chase,150,44.0,2.706,1,265,65,28.0,22.0,10.0,14.0,20.0,9.0,23.0,54.0,23.0,42.0,42.0,27.0,67.0,3.0,0.1232791376760382,0.6278015024181465
66,398e7f33-6d63-47e3-9a9a-74e474cd8a1d,chase,30,88.0,1.998,1,265,66,28.0,22.0,10.0,14.0,20.0,9.0,23.0,54.0,23.0,42.0,42.0,27.0,67.0,3.0,0.1232791376760382,0.6278015024181465
67,c798455f-e351-48ee-b7cd-d27d6bb7ad61,chase,60,93.0,2.904,1,265,67,28.0,22.0,10.0,14.0,20.0,9.0,23.0,54.0,23.0,42.0,42.0,27.0,67.0,3.0,0.1232791376760382,0.6278015024181465
68,4f1db8f7-63a7-4e49-b31b-12adcf107bf0,chase,150,31.0,2.166,1,265,68,28.0,22.0,10.0,14.0,20.0,9.0,23.0,54.0,23.0,42.0,42.0,27.0,67.0,3.0,0.1232791376760382,0.6278015024181465
69,bee25e5c-74fd-4f63-b2e7-43b8af6bb08c,chase,90,69.0,2.335,1,265,69,28.0,22.0,10.0,14.0,20.0,9.0,23.0,54.0,23.0,42.0,42.0,27.0,67.0,3.0,0.1232791376760382,0.6278015024181465
70,4e913eda-699f-4aa1-831d-c82fb169914c,chase,60,64.0,2.287,1,265,70,28.0,22.0,10.0,14.0,20.0,9.0,23.0,54.0,23.0,42.0,42.0,27.0,67.0,3.0,0.1232791376760382,0.6278015024181465
71,d145a05f-e3c9-4244-b83b-2792e29b0493,chase,150,52.0,2.572,1,265,71,28.0,22.0,10.0,14.0,20.0,9.0,23.0,54.0,23.0,42.0,42.0,27.0,67.0,3.0,0.1232791376760382,0.6278015024181465
72,64673dfa-0706-4fb2-a297-b988740292d5,chase,90,71.0,5.992,1,265,72,28.0,22.0,10.0,14.0,20.0,9.0,23.0,54.0,23.0,42.0,42.0,27.0,67.0,3.0,0.1232791376760382,0.6278015024181465
73,21ca5095-0a92-499b-9d26-d8a5f4a0841a,wander,180,44.0,3.424,1,265,73,28.0,22.0,10.0,14.0,20.0,9.0,23.0,54.0,23.0,42.0,42.0,27.0,67.0,3.0,0.1232791376760382,0.6278015024181465
74,dad72227-6303-403d-8c8f-61b79d192ff4,chase,120,35.0,3.035,1,265,74,28.0,22.0,10.0,14.0,20.0,9.0,23.0,54.0,23.0,42.0,42.0,27.0,67.0,3.0,0.1232791376760382,0.6278015024181465
75,ebb2b54b-03ef-482e-98e6-c30b11e93f54,chase,90,73.0,2.345,1,265,75,28.0,22.0,10.0,14.0,20.0,9.0,23.0,54.0,23.0,42.0,42.0,27.0,67.0,3.0,0.1232791376760382,0.6278015024181465
76,c40a4196-baf2-4992-afe5-aeca6b69a170,chase,30,85.0,2.177,1,265,76,28.0,22.0,10.0,14.0,20.0,9.0,23.0,54.0,23.0,42.0,42.0,27.0,67.0,3.0,0.1232791376760382,0.6278015024181465
77,84e883bc-3ec7-4bef-bdb3-2016001d7f47,chase,120,42.0,2.777,1,265,77,28.0,22.0,10.0,14.0,20.0,9.0,23.0,54.0,23.0,42.0,42.0,27.0,67.0,3.0,0.1232791376760382,0.6278015024181465
78,2b3090fe-a6e0-4e32-8e43-767b0d526444,chase,60,94.0,2.444,1,265,78,28.0,22.0,10.0,14.0,20.0,9.0,23.0,54.0,23.0,42.0,42.0,27.0,67.0,3.0,0.1232791376760382,0.6278015024181465
79,4fb304a5-e4d9-4469-a34d-360a50cb0d09,chase,60,74.0,1.994,1,265,79,28.0,22.0,10.0,14.0,20.0,9.0,23.0,54.0,23.0,42.0,42.0,27.0,67.0,3.0,0.1232791376760382,0.6278015024181465
80,2437aa32-b54d-48e7-b20d-fafb63156eb0,chase,0,73.0,1.965,1,265,80,28.0,22.0,10.0,14.0,20.0,9.0,23.0,54.0,23.0,42.0,42.0,27.0,67.0,3.0,0.1232791376760382,0.6278015024181465
81,65c87d60-ca32-4b8c-862c-41cd8e585b4b,chase,0,70.0,2.305,1,265,81,28.0,22.0,10.0,14.0,20.0,9.0,23.0,54.0,23.0,42.0,42.0,27.0,67.0,3.0,0.1232791376760382,0.6278015024181465
82,116d4cf9-2d22-4e06-8fbf-248789f8212c,chase,150,36.0,2.447,0,265,82,28.0,22.0,10.0,14.0,20.0,9.0,23.0,54.0,23.0,42.0,42.0,27.0,67.0,3.0,0.1232791376760382,0.6278015024181465
83,4b3782e4-fafc-4dd1-96aa-9b339f19d004,chase,0,78.0,1.574,1,265,83,28.0,22.0,10.0,14.0,20.0,9.0,23.0,54.0,23.0,42.0,42.0,27.0,67.0,3.0,0.1232791376760382,0.6278015024181465
84,7f76ce9f-1463-4e78-87a4-6a54cd80ee88,chase,90,100.0,2.793,1,325,0,20.0,21.0,15.0,22.0,16.0,17.0,1.0,44.0,29.0,46.0,39.0,37.0,56.0,2.0,0.1898726155675753,0.7891084347995089
85,1d35e834-4947-46b2-9cbd-816ea4587c6f,wander,180,0.0,2.904,1,325,1,20.0,21.0,15.0,22.0,16.0,17.0,1.0,44.0,29.0,46.0,39.0,37.0,56.0,2.0,0.1898726155675753,0.7891084347995089
86,18c4991b-f4d6-47a6-b29a-81f425410c0e,chase,120,2.0,2.446,1,325,2,20.0,21.0,15.0,22.0,16.0,17.0,1.0,44.0,29.0,46.0,39.0,37.0,56.0,2.0,0.1898726155675753,0.7891084347995089
87,bc18f2bb-8e1a-4fcf-bc63-d56da485f828,chase,90,33.0,2.95,1,325,3,20.0,21.0,15.0,22.0,16.0,17.0,1.0,44.0,29.0,46.0,39.0,37.0,56.0,2.0,0.1898726155675753,0.7891084347995089
88,e4dd3e31-b4f2-4f66-9e70-0665b6bcd089,chase,30,100.0,2.386,1,325,4,20.0,21.0,15.0,22.0,16.0,17.0,1.0,44.0,29.0,46.0,39.0,37.0,56.0,2.0,0.1898726155675753,0.7891084347995089
89,46975d67-ead1-4d29-93d2-9fbd40dad49d,wander,180,58.0,2.978,0,325,5,20.0,21.0,15.0,22.0,16.0,17.0,1.0,44.0,29.0,46.0,39.0,37.0,56.0,2.0,0.1898726155675753,0.7891084347995089
90,4e913eda-699f-4aa1-831d-c82fb169914c,chase,60,81.0,1.846,1,325,6,20.0,21.0,15.0,22.0,16.0,17.0,1.0,44.0,29.0,46.0,39.0,37.0,56.0,2.0,0.1898726155675753,0.7891084347995089
91,ebb2b54b-03ef-482e-98e6-c30b11e93f54,chase,90,73.0,2.082,1,325,7,20.0,21.0,15.0,22.0,16.0,17.0,1.0,44.0,29.0,46.0,39.0,37.0,56.0,2.0,0.1898726155675753,0.7891084347995089
92,c8a1258a-1920-42bf-98e8-6c2dcc03a258,chase,60,88.0,2.366,1,325,8,20.0,21.0,15.0,22.0,16.0,17.0,1.0,44.0,29.0,46.0,39.0,37.0,56.0,2.0,0.1898726155675753,0.7891084347995089
93,f8c01499-8009-448b-9476-a38a582d3db6,chase,150,60.0,2.553,1,325,9,20.0,21.0,15.0,22.0,16.0,17.0,1.0,44.0,29.0,46.0,39.0,37.0,56.0,2.0,0.1898726155675753,0.7891084347995089
94,f9e978d5-51e5-401a-8c9a-df747f2dec53,chase,0,87.0,2.336,1,325,10,20.0,21.0,15.0,22.0,16.0,17.0,1.0,44.0,29.0,46.0,39.0,37.0,56.0,2.0,0.1898726155675753,0.7891084347995089
95,496c052f-24cd-4731-b1a3-dc6a8076719b,chase,120,73.0,2.776,1,325,11,20.0,21.0,15.0,22.0,16.0,17.0,1.0,44.0,29.0,46.0,39.0,37.0,56.0,2.0,0.1898726155675753,0.7891084347995089
96,3dbf8de7-1bf7-4a43-a5e3-4366a94ea690,chase,90,34.0,2.95,1,325,12,20.0,21.0,15.0,22.0,16.0,17.0,1.0,44.0,29.0,46.0,39.0,37.0,56.0,2.0,0.1898726155675753,0.7891084347995089
97,411043c2-72c5-48c5-8cb7-febcebc40f98,chase,30,93.0,2.916,1,325,13,20.0,21.0,15.0,22.0,16.0,17.0,1.0,44.0,29.0,46.0,39.0,37.0,56.0,2.0,0.1898726155675753,0.7891084347995089
98,bee25e5c-74fd-4f63-b2e7-43b8af6bb08c,chase,90,93.0,3.028,1,325,14,20.0,21.0,15.0,22.0,16.0,17.0,1.0,44.0,29.0,46.0,39.0,37.0,56.0,2.0,0.1898726155675753,0.7891084347995089
99,7ef8daac-db75-4ee8-a071-f88ace7368fa,chase,60,95.0,1.816,1,325,15,20.0,21.0,15.0,22.0,16.0,17.0,1.0,44.0,29.0,46.0,39.0,37.0,56.0,2.0,0.1898726155675753,0.7891084347995089
100,2b3090fe-a6e0-4e32-8e43-767b0d526444,chase,60,100.0,2.398,1,325,16,20.0,21.0,15.0,22.0,16.0,17.0,1.0,44.0,29.0,46.0,39.0,37.0,56.0,2.0,0.1898726155675753,0.7891084347995089
101,d145a05f-e3c9-4244-b83b-2792e29b0493,chase,150,96.0,1.968,1,325,17,20.0,21.0,15.0,22.0,16.0,17.0,1.0,44.0,29.0,46.0,39.0,37.0,56.0,2.0,0.1898726155675753,0.7891084347995089
102,599df54c-434d-46db-a56a-5698a4ae9a9e,chase,150,7.0,2.149,0,325,18,20.0,21.0,15.0,22.0,16.0,17.0,1.0,44.0,29.0,46.0,39.0,37.0,56.0,2.0,0.1898726155675753,0.7891084347995089
103,12ba80f8-98cb-4c76-836d-72c2d6364a8e,chase,120,2.0,2.634,1,325,19,20.0,21.0,15.0,22.0,16.0,17.0,1.0,44.0,29.0,46.0,39.0,37.0,56.0,2.0,0.1898726155675753,0.7891084347995089
104,92158ea9-b156-4e87-a2e3-ff0845033b9c,chase,150,2.0,2.311,1,325,20,20.0,21.0,15.0,22.0,16.0,17.0,1.0,44.0,29.0,46.0,39.0,37.0,56.0,2.0,0.1898726155675753,0.7891084347995089
105,2d4bdbd9-d1de-4787-8cc8-a317b9d4c68d,wander,180,0.0,2.623,0,325,21,20.0,21.0,15.0,22.0,16.0,17.0,1.0,44.0,29.0,46.0,39.0,37.0,56.0,2.0,0.1898726155675753,0.7891084347995089
106,cd35aaa0-2e49-4c68-9db3-f26fb9be29c5,chase,0,100.0,2.15,1,325,22,20.0,21.0,15.0,22.0,16.0,17.0,1.0,44.0,29.0,46.0,39.0,37.0,56.0,2.0,0.1898726155675753,0.7891084347995089
107,0ea90462-f5e2-47a7-bd4b-2ea1c0bb7293,chase,60,100.0,2.705,1,325,23,20.0,21.0,15.0,22.0,16.0,17.0,1.0,44.0,29.0,46.0,39.0,37.0,56.0,2.0,0.1898726155675753,0.7891084347995089
108,67a027b6-67e1-4784-aaad-ab48b5731cca,chase,0,100.0,3.105,1,325,24,20.0,21.0,15.0,22.0,16.0,17.0,1.0,44.0,29.0,46.0,39.0,37.0,56.0,2.0,0.1898726155675753,0.7891084347995089
109,9d561139-a905-406b-83a0-38ea62293ed9,chase,90,100.0,1.989,1,325,25,20.0,21.0,15.0,22.0,16.0,17.0,1.0,44.0,29.0,46.0,39.0,37.0,56.0,2.0,0.1898726155675753,0.7891084347995089
110,84e883bc-3ec7-4bef-bdb3-2016001d7f47,chase,120,21.0,2.637,1,325,26,20.0,21.0,15.0,22.0,16.0,17.0,1.0,44.0,29.0,46.0,39.0,37.0,56.0,2.0,0.1898726155675753,0.7891084347995089
111,6164475a-8bff-4ee0-8fef-043a34cd7da5,chase,120,57.0,2.77,1,325,27,20.0,21.0,15.0,22.0,16.0,17.0,1.0,44.0,29.0,46.0,39.0,37.0,56.0,2.0,0.1898726155675753,0.7891084347995089
112,c4c5c990-2898-4b30-8454-9be48985cf75,chase,150,0.0,2.37,1,325,28,20.0,21.0,15.0,22.0,16.0,17.0,1.0,44.0,29.0,46.0,39.0,37.0,56.0,2.0,0.1898726155675753,0.7891084347995089
113,b3b1ce6f-50f4-4922-80d2-b53f06819db2,chase,120,100.0,2.031,1,325,29,20.0,21.0,15.0,22.0,16.0,17.0,1.0,44.0,29.0,46.0,39.0,37.0,56.0,2.0,0.1898726155675753,0.7891084347995089
114,7d329546-ecf4-4612-8f00-c127c77d5d6c,chase,60,100.0,2.196,1,325,30,20.0,21.0,15.0,22.0,16.0,17.0,1.0,44.0,29.0,46.0,39.0,37.0,56.0,2.0,0.1898726155675753,0.7891084347995089
115,dbce0a8f-ba45-4265-a60e-b98acd0e16d0,chase,150,100.0,2.262,1,325,31,20.0,21.0,15.0,22.0,16.0,17.0,1.0,44.0,29.0,46.0,39.0,37.0,56.0,2.0,0.1898726155675753,0.7891084347995089
116,21ca5095-0a92-499b-9d26-d8a5f4a0841a,wander,180,0.0,2.26,0,325,32,20.0,21.0,15.0,22.0,16.0,17.0,1.0,44.0,29.0,46.0,39.0,37.0,56.0,2.0,0.1898726155675753,0.7891084347995089
117,977e0607-6332-4db4-ab12-9d17dce4dc85,wander,180,0.0,2.547,1,325,33,20.0,21.0,15.0,22.0,16.0,17.0,1.0,44.0,29.0,46.0,39.0,37.0,56.0,2.0,0.1898726155675753,0.7891084347995089
118,f1ea4cb7-98d0-45a4-8269-16f1aebf05e3,chase,30,100.0,2.044,1,325,34,20.0,21.0,15.0,22.0,16.0,17.0,1.0,44.0,29.0,46.0,39.0,37.0,56.0,2.0,0.1898726155675753,0.7891084347995089
119,2cf66fb7-ab1d-466b-be40-d9f856dc213f,wander,180,20.0,2.424,1,325,35,20.0,21.0,15.0,22.0,16.0,17.0,1.0,44.0,29.0,46.0,39.0,37.0,56.0,2.0,0.1898726155675753,0.7891084347995089
120,68be0cf8-ea92-4566-b84a-cbd60b2e5547,wander,180,63.0,2.289,0,325,36,20.0,21.0,15.0,22.0,16.0,17.0,1.0,44.0,29.0,46.0,39.0,37.0,56.0,2.0,0.1898726155675753,0.7891084347995089
121,c40a4196-baf2-4992-afe5-aeca6b69a170,chase,30,100.0,2.1,1,325,37,20.0,21.0,15.0,22.0,16.0,17.0,1.0,44.0,29.0,46.0,39.0,37.0,56.0,2.0,0.1898726155675753,0.7891084347995089
122,8af66fd7-6ab4-47a3-a88c-02fd34772ac6,wander,180,0.0,2.555,1,325,38,20.0,21.0,15.0,22.0,16.0,17.0,1.0,44.0,29.0,46.0,39.0,37.0,56.0,2.0,0.1898726155675753,0.7891084347995089
123,4fb58057-109b-400f-8b1d-d9afc6926a6c,chase,60,100.0,1.838,1,325,39,20.0,21.0,15.0,22.0,16.0,17.0,1.0,44.0,29.0,46.0,39.0,37.0,56.0,2.0,0.1898726155675753,0.7891084347995089
124,c51864d5-4cd9-435e-8d8b-210c8454248a,chase,0,100.0,2.148,1,325,40,20.0,21.0,15.0,22.0,16.0,17.0,1.0,44.0,29.0,46.0,39.0,37.0,56.0,2.0,0.1898726155675753,0.7891084347995089
125,184c8795-2f00-4c7d-bc10-bd7de3066a20,chase,60,100.0,2.178,1,325,41,20.0,21.0,15.0,22.0,16.0,17.0,1.0,44.0,29.0,46.0,39.0,37.0,56.0,2.0,0.1898726155675753,0.7891084347995089
126,93865245-a3be-41b2-a17e-29b2b6043800,chase,90,74.0,2.801,1,325,42,20.0,21.0,15.0,22.0,16.0,17.0,1.0,44.0,29.0,46.0,39.0,37.0,56.0,2.0,0.1898726155675753,0.7891084347995089
127,2437aa32-b54d-48e7-b20d-fafb63156eb0,chase,0,100.0,2.042,1,325,43,20.0,21.0,15.0,22.0,16.0,17.0,1.0,44.0,29.0,46.0,39.0,37.0,56.0,2.0,0.1898726155675753,0.7891084347995089
128,ae7d3eb8-dc5d-447b-b5c5-9b30fb3b8314,chase,60,99.0,2.127,1,325,44,20.0,21.0,15.0,22.0,16.0,17.0,1.0,44.0,29.0,46.0,39.0,37.0,56.0,2.0,0.1898726155675753,0.7891084347995089
129,86edbcec-0b0a-41d9-9c9e-d5df43732237,chase,30,100.0,2.136,1,325,45,20.0,21.0,15.0,22.0,16.0,17.0,1.0,44.0,29.0,46.0,39.0,37.0,56.0,2.0,0.1898726155675753,0.7891084347995089
130,45126725-a7eb-4318-86c4-1af84082e8b8,chase,30,98.0,2.017,1,325,46,20.0,21.0,15.0,22.0,16.0,17.0,1.0,44.0,29.0,46.0,39.0,37.0,56.0,2.0,0.1898726155675753,0.7891084347995089
131,c1b6f573-136b-414a-a6ec-8628f66a51e1,chase,150,0.0,2.848,1,325,47,20.0,21.0,15.0,22.0,16.0,17.0,1.0,44.0,29.0,46.0,39.0,37.0,56.0,2.0,0.1898726155675753,0.7891084347995089
132,cf6ad30a-98ab-45d8-98d9-92352096afee,chase,30,100.0,1.989,1,325,48,20.0,21.0,15.0,22.0,16.0,17.0,1.0,44.0,29.0,46.0,39.0,37.0,56.0,2.0,0.1898726155675753,0.7891084347995089
133,4b3782e4-fafc-4dd1-96aa-9b339f19d004,chase,0,100.0,2.025,1,325,49,20.0,21.0,15.0,22.0,16.0,17.0,1.0,44.0,29.0,46.0,39.0,37.0,56.0,2.0,0.1898726155675753,0.7891084347995089
134,a680f7c6-9605-4481-a14d-c24d8d7b99bc,chase,30,100.0,2.92,1,325,50,20.0,21.0,15.0,22.0,16.0,17.0,1.0,44.0,29.0,46.0,39.0,37.0,56.0,2.0,0.1898726155675753,0.7891084347995089
135,a763322d-d8ef-4998-b3d2-05767e0273f2,chase,150,0.0,2.523,1,325,51,20.0,21.0,15.0,22.0,16.0,17.0,1.0,44.0,29.0,46.0,39.0,37.0,56.0,2.0,0.1898726155675753,0.7891084347995089
136,6d712780-43b4-49f9-9bb8-c6ef920b78bd,chase,0,100.0,2.122,1,325,52,20.0,21.0,15.0,22.0,16.0,17.0,1.0,44.0,29.0,46.0,39.0,37.0,56.0,2.0,0.1898726155675753,0.7891084347995089
137,dad72227-6303-403d-8c8f-61b79d192ff4,chase,120,0.0,2.56,1,325,53,20.0,21.0,15.0,22.0,16.0,17.0,1.0,44.0,29.0,46.0,39.0,37.0,56.0,2.0,0.1898726155675753,0.7891084347995089
138,0ea38b84-b2dc-4072-b4b8-3dce5f53debc,chase,120,36.0,1.987,1,325,54,20.0,21.0,15.0,22.0,16.0,17.0,1.0,44.0,29.0,46.0,39.0,37.0,56.0,2.0,0.1898726155675753,0.7891084347995089
139,64e6dcf6-35e5-46ef-8d1c-80a6786a24f6,chase,90,97.0,1.974,1,325,55,20.0,21.0,15.0,22.0,16.0,17.0,1.0,44.0,29.0,46.0,39.0,37.0,56.0,2.0,0.1898726155675753,0.7891084347995089
140,2383c97c-89dc-495f-8ec8-8a517a45ca6c,chase,90,61.0,2.072,1,325,56,20.0,21.0,15.0,22.0,16.0,17.0,1.0,44.0,29.0,46.0,39.0,37.0,56.0,2.0,0.1898726155675753,0.7891084347995089
141,e5de8a7b-b080-44aa-9279-c42f7862e210,chase,0,100.0,2.01,1,325,57,20.0,21.0,15.0,22.0,16.0,17.0,1.0,44.0,29.0,46.0,39.0,37.0,56.0,2.0,0.1898726155675753,0.7891084347995089
142,c798455f-e351-48ee-b7cd-d27d6bb7ad61,chase,60,100.0,2.213,1,325,58,20.0,21.0,15.0,22.0,16.0,17.0,1.0,44.0,29.0,46.0,39.0,37.0,56.0,2.0,0.1898726155675753,0.7891084347995089
143,981221b7-2aa0-476c-b101-390d6cc3dd1a,chase,120,100.0,2.576,1,325,59,20.0,21.0,15.0,22.0,16.0,17.0,1.0,44.0,29.0,46.0,39.0,37.0,56.0,2.0,0.1898726155675753,0.7891084347995089
144,1c695094-312c-450a-ac7f-f994dabb958d,wander,180,0.0,2.243,1,325,60,20.0,21.0,15.0,22.0,16.0,17.0,1.0,44.0,29.0,46.0,39.0,37.0,56.0,2.0,0.1898726155675753,0.7891084347995089
145,884bc951-67a6-42bd-8ea7-ece0c8745d3f,chase,0,100.0,2.201,1,325,61,20.0,21.0,15.0,22.0,16.0,17.0,1.0,44.0,29.0,46.0,39.0,37.0,56.0,2.0,0.1898726155675753,0.7891084347995089
146,7da2bf99-2525-456c-889d-33e4d57cefac,chase,150,0.0,2.637,1,325,62,20.0,21.0,15.0,22.0,16.0,17.0,1.0,44.0,29.0,46.0,39.0,37.0,56.0,2.0,0.1898726155675753,0.7891084347995089
147,116d4cf9-2d22-4e06-8fbf-248789f8212c,chase,150,0.0,2.943,1,325,63,20.0,21.0,15.0,22.0,16.0,17.0,1.0,44.0,29.0,46.0,39.0,37.0,56.0,2.0,0.1898726155675753,0.7891084347995089
148,2667cf6b-8ba8-4919-a871-ecd9b2852bce,chase,120,5.0,2.948,1,325,64,20.0,21.0,15.0,22.0,16.0,17.0,1.0,44.0,29.0,46.0,39.0,37.0,56.0,2.0,0.1898726155675753,0.7891084347995089
149,81f068e9-cbbc-4d88-8e31-206979547986,chase,120,95.0,2.481,1,325,65,20.0,21.0,15.0,22.0,16.0,17.0,1.0,44.0,29.0,46.0,39.0,37.0,56.0,2.0,0.1898726155675753,0.7891084347995089
150,5dbc75c6-6973-4ae1-aaf0-d3b84feb4723,wander,180,0.0,2.616,1,325,66,20.0,21.0,15.0,22.0,16.0,17.0,1.0,44.0,29.0,46.0,39.0,37.0,56.0,2.0,0.1898726155675753,0.7891084347995089
151,4fb304a5-e4d9-4469-a34d-360a50cb0d09,chase,60,100.0,1.831,1,325,67,20.0,21.0,15.0,22.0,16.0,17.0,1.0,44.0,29.0,46.0,39.0,37.0,56.0,2.0,0.1898726155675753,0.7891084347995089
152,398e7f33-6d63-47e3-9a9a-74e474cd8a1d,chase,30,100.0,2.188,1,325,68,20.0,21.0,15.0,22.0,16.0,17.0,1.0,44.0,29.0,46.0,39.0,37.0,56.0,2.0,0.1898726155675753,0.7891084347995089
153,c5cf3c4d-84e7-4c90-a33b-9d7db4b01300,chase,0,100.0,1.993,1,325,69,20.0,21.0,15.0,22.0,16.0,17.0,1.0,44.0,29.0,46.0,39.0,37.0,56.0,2.0,0.1898726155675753,0.7891084347995089
154,cd9d4d31-b57e-4c3d-86c6-267ce9eec948,chase,60,100.0,1.696,1,325,70,20.0,21.0,15.0,22.0,16.0,17.0,1.0,44.0,29.0,46.0,39.0,37.0,56.0,2.0,0.1898726155675753,0.7891084347995089
155,738dba2c-d7cb-488e-b971-0dc50c74bf4b,chase,30,100.0,1.869,1,325,71,20.0,21.0,15.0,22.0,16.0,17.0,1.0,44.0,29.0,46.0,39.0,37.0,56.0,2.0,0.1898726155675753,0.7891084347995089
156,068dfd59-6b9c-4eca-b60c-7eb73cc72305,chase,0,100.0,1.87,1,325,72,20.0,21.0,15.0,22.0,16.0,17.0,1.0,44.0,29.0,46.0,39.0,37.0,56.0,2.0,0.1898726155675753,0.7891084347995089
157,65c87d60-ca32-4b8c-862c-41cd8e585b4b,chase,0,100.0,2.153,1,325,73,20.0,21.0,15.0,22.0,16.0,17.0,1.0,44.0,29.0,46.0,39.0,37.0,56.0,2.0,0.1898726155675753,0.7891084347995089
158,42d1593c-1903-4c06-8304-6d2b29c5be37,chase,30,100.0,1.939,1,325,74,20.0,21.0,15.0,22.0,16.0,17.0,1.0,44.0,29.0,46.0,39.0,37.0,56.0,2.0,0.1898726155675753,0.7891084347995089
159,64673dfa-0706-4fb2-a297-b988740292d5,chase,90,100.0,2.231,1,325,75,20.0,21.0,15.0,22.0,16.0,17.0,1.0,44.0,29.0,46.0,39.0,37.0,56.0,2.0,0.1898726155675753,0.7891084347995089
160,1a3da098-0a3a-43af-af4a-a9fad5adcce6,chase,90,100.0,2.257,1,325,76,20.0,21.0,15.0,22.0,16.0,17.0,1.0,44.0,29.0,46.0,39.0,37.0,56.0,2.0,0.1898726155675753,0.7891084347995089
161,58ff2cb6-e661-4be4-945c-d3f9ab5180c6,chase,150,100.0,2.366,1,325,77,20.0,21.0,15.0,22.0,16.0,17.0,1.0,44.0,29.0,46.0,39.0,37.0,56.0,2.0,0.1898726155675753,0.7891084347995089
162,b75e278a-0fbd-474b-92b0-7038934dda4b,chase,30,100.0,1.992,1,325,78,20.0,21.0,15.0,22.0,16.0,17.0,1.0,44.0,29.0,46.0,39.0,37.0,56.0,2.0,0.1898726155675753,0.7891084347995089
163,24724e9a-8a79-4ab8-a58f-e007c5d00714,chase,120,97.0,2.218,1,325,79,20.0,21.0,15.0,22.0,16.0,17.0,1.0,44.0,29.0,46.0,39.0,37.0,56.0,2.0,0.1898726155675753,0.7891084347995089
164,b70d0259-cb69-48f1-b026-46452cf6e70f,wander,180,26.0,2.424,0,325,80,20.0,21.0,15.0,22.0,16.0,17.0,1.0,44.0,29.0,46.0,39.0,37.0,56.0,2.0,0.1898726155675753,0.7891084347995089
165,4f1db8f7-63a7-4e49-b31b-12adcf107bf0,chase,150,19.0,2.185,1,325,81,20.0,21.0,15.0,22.0,16.0,17.0,1.0,44.0,29.0,46.0,39.0,37.0,56.0,2.0,0.1898726155675753,0.7891084347995089
166,f4c4b671-d1de-4b8d-adad-ab6e05900d81,chase,90,69.0,2.306,1,325,82,20.0,21.0,15.0,22.0,16.0,17.0,1.0,44.0,29.0,46.0,39.0,37.0,56.0,2.0,0.1898726155675753,0.7891084347995089
167,5ce017a9-f595-403c-a861-53e49993751a,wander,180,41.0,2.648,1,325,83,20.0,21.0,15.0,22.0,16.0,17.0,1.0,44.0,29.0,46.0,39.0,37.0,56.0,2.0,0.1898726155675753,0.7891084347995089
168,d145a05f-e3c9-4244-b83b-2792e29b0493,chase,150,0.0,2.492,1,309,0,12.0,18.0,9.0,17.0,9.0,31.0,2.0,20.0,42.0,43.63636363636363,39.0,48.0,36.0,6.0,0.00936842680689,0.983806140058613
169,a763322d-d8ef-4998-b3d2-05767e0273f2,chase,150,0.0,2.052,0,309,1,12.0,18.0,9.0,17.0,9.0,31.0,2.0,20.0,42.0,43.63636363636363,39.0,48.0,36.0,6.0,0.00936842680689,0.983806140058613
170,2cf66fb7-ab1d-466b-be40-d9f856dc213f,wander,180,100.0,2.97,1,309,2,12.0,18.0,9.0,17.0,9.0,31.0,2.0,20.0,42.0,43.63636363636363,39.0,48.0,36.0,6.0,0.00936842680689,0.983806140058613
171,0ea38b84-b2dc-4072-b4b8-3dce5f53debc,chase,120,100.0,3.414,1,309,3,12.0,18.0,9.0,17.0,9.0,31.0,2.0,20.0,42.0,43.63636363636363,39.0,48.0,36.0,6.0,0.00936842680689,0.983806140058613
172,1a3da098-0a3a-43af-af4a-a9fad5adcce6,chase,90,100.0,2.608,1,309,4,12.0,18.0,9.0,17.0,9.0,31.0,2.0,20.0,42.0,43.63636363636363,39.0,48.0,36.0,6.0,0.00936842680689,0.983806140058613
173,bee25e5c-74fd-4f63-b2e7-43b8af6bb08c,chase,90,100.0,2.723,1,309,5,12.0,18.0,9.0,17.0,9.0,31.0,2.0,20.0,42.0,43.63636363636363,39.0,48.0,36.0,6.0,0.00936842680689,0.983806140058613
174,b3b1ce6f-50f4-4922-80d2-b53f06819db2,chase,120,100.0,2.694,1,309,6,12.0,18.0,9.0,17.0,9.0,31.0,2.0,20.0,42.0,43.63636363636363,39.0,48.0,36.0,6.0,0.00936842680689,0.983806140058613
175,c4c5c990-2898-4b30-8454-9be48985cf75,chase,150,0.0,2.354,0,309,7,12.0,18.0,9.0,17.0,9.0,31.0,2.0,20.0,42.0,43.63636363636363,39.0,48.0,36.0,6.0,0.00936842680689,0.983806140058613
176,65c87d60-ca32-4b8c-862c-41cd8e585b4b,chase,0,100.0,2.631,1,309,8,12.0,18.0,9.0,17.0,9.0,31.0,2.0,20.0,42.0,43.63636363636363,39.0,48.0,36.0,6.0,0.00936842680689,0.983806140058613
177,84e883bc-3ec7-4bef-bdb3-2016001d7f47,chase,120,0.0,2.44,1,309,9,12.0,18.0,9.0,17.0,9.0,31.0,2.0,20.0,42.0,43.63636363636363,39.0,48.0,36.0,6.0,0.00936842680689,0.983806140058613
178,92158ea9-b156-4e87-a2e3-ff0845033b9c,chase,150,0.0,2.558,0,309,10,12.0,18.0,9.0,17.0,9.0,31.0,2.0,20.0,42.0,43.63636363636363,39.0,48.0,36.0,6.0,0.00936842680689,0.983806140058613
179,c798455f-e351-48ee-b7cd-d27d6bb7ad61,chase,60,100.0,3.679,1,309,11,12.0,18.0,9.0,17.0,9.0,31.0,2.0,20.0,42.0,43.63636363636363,39.0,48.0,36.0,6.0,0.00936842680689,0.983806140058613
180,7d329546-ecf4-4612-8f00-c127c77d5d6c,chase,60,100.0,2.703,1,309,12,12.0,18.0,9.0,17.0,9.0,31.0,2.0,20.0,42.0,43.63636363636363,39.0,48.0,36.0,6.0,0.00936842680689,0.983806140058613
181,8af66fd7-6ab4-47a3-a88c-02fd34772ac6,wander,180,0.0,3.75,0,309,13,12.0,18.0,9.0,17.0,9.0,31.0,2.0,20.0,42.0,43.63636363636363,39.0,48.0,36.0,6.0,0.00936842680689,0.983806140058613
182,1d35e834-4947-46b2-9cbd-816ea4587c6f,wander,180,0.0,3.356,0,309,14,12.0,18.0,9.0,17.0,9.0,31.0,2.0,20.0,42.0,43.63636363636363,39.0,48.0,36.0,6.0,0.00936842680689,0.983806140058613
183,b75e278a-0fbd-474b-92b0-7038934dda4b,chase,30,100.0,2.689,1,309,15,12.0,18.0,9.0,17.0,9.0,31.0,2.0,20.0,42.0,43.63636363636363,39.0,48.0,36.0,6.0,0.00936842680689,0.983806140058613
184,81f068e9-cbbc-4d88-8e31-206979547986,chase,120,100.0,2.352,1,309,16,12.0,18.0,9.0,17.0,9.0,31.0,2.0,20.0,42.0,43.63636363636363,39.0,48.0,36.0,6.0,0.00936842680689,0.983806140058613
185,c51864d5-4cd9-435e-8d8b-210c8454248a,chase,0,100.0,2.603,1,309,17,12.0,18.0,9.0,17.0,9.0,31.0,2.0,20.0,42.0,43.63636363636363,39.0,48.0,36.0,6.0,0.00936842680689,0.983806140058613
186,42d1593c-1903-4c06-8304-6d2b29c5be37,chase,30,100.0,2.368,1,309,18,12.0,18.0,9.0,17.0,9.0,31.0,2.0,20.0,42.0,43.63636363636363,39.0,48.0,36.0,6.0,0.00936842680689,0.983806140058613
187,cd9d4d31-b57e-4c3d-86c6-267ce9eec948,chase,60,100.0,2.338,1,309,19,12.0,18.0,9.0,17.0,9.0,31.0,2.0,20.0,42.0,43.63636363636363,39.0,48.0,36.0,6.0,0.00936842680689,0.983806140058613
188,4f1db8f7-63a7-4e49-b31b-12adcf107bf0,chase,150,0.0,3.384,0,309,20,12.0,18.0,9.0,17.0,9.0,31.0,2.0,20.0,42.0,43.63636363636363,39.0,48.0,36.0,6.0,0.00936842680689,0.983806140058613
189,4fb304a5-e4d9-4469-a34d-360a50cb0d09,chase,60,100.0,2.719,1,309,21,12.0,18.0,9.0,17.0,9.0,31.0,2.0,20.0,42.0,43.63636363636363,39.0,48.0,36.0,6.0,0.00936842680689,0.983806140058613
190,068dfd59-6b9c-4eca-b60c-7eb73cc72305,chase,0,100.0,2.599,1,309,22,12.0,18.0,9.0,17.0,9.0,31.0,2.0,20.0,42.0,43.63636363636363,39.0,48.0,36.0,6.0,0.00936842680689,0.983806140058613
191,e5de8a7b-b080-44aa-9279-c42f7862e210,chase,0,100.0,2.449,1,309,23,12.0,18.0,9.0,17.0,9.0,31.0,2.0,20.0,42.0,43.63636363636363,39.0,48.0,36.0,6.0,0.00936842680689,0.983806140058613
192,5dbc75c6-6973-4ae1-aaf0-d3b84feb4723,wander,180,0.0,2.542,1,309,24,12.0,18.0,9.0,17.0,9.0,31.0,2.0,20.0,42.0,43.63636363636363,39.0,48.0,36.0,6.0,0.00936842680689,0.983806140058613
193,2437aa32-b54d-48e7-b20d-fafb63156eb0,chase,0,100.0,3.477,1,309,25,12.0,18.0,9.0,17.0,9.0,31.0,2.0,20.0,42.0,43.63636363636363,39.0,48.0,36.0,6.0,0.00936842680689,0.983806140058613
194,398e7f33-6d63-47e3-9a9a-74e474cd8a1d,chase,30,100.0,3.682,1,309,26,12.0,18.0,9.0,17.0,9.0,31.0,2.0,20.0,42.0,43.63636363636363,39.0,48.0,36.0,6.0,0.00936842680689,0.983806140058613
195,4e913eda-699f-4aa1-831d-c82fb169914c,chase,60,100.0,2.557,1,309,27,12.0,18.0,9.0,17.0,9.0,31.0,2.0,20.0,42.0,43.63636363636363,39.0,48.0,36.0,6.0,0.00936842680689,0.983806140058613
196,c40a4196-baf2-4992-afe5-aeca6b69a170,chase,30,100.0,2.356,1,309,28,12.0,18.0,9.0,17.0,9.0,31.0,2.0,20.0,42.0,43.63636363636363,39.0,48.0,36.0,6.0,0.00936842680689,0.983806140058613
197,18c4991b-f4d6-47a6-b29a-81f425410c0e,chase,120,0.0,2.712,1,309,29,12.0,18.0,9.0,17.0,9.0,31.0,2.0,20.0,42.0,43.63636363636363,39.0,48.0,36.0,6.0,0.00936842680689,0.983806140058613
198,b70d0259-cb69-48f1-b026-46452cf6e70f,wander,180,0.0,2.424,0,309,30,12.0,18.0,9.0,17.0,9.0,31.0,2.0,20.0,42.0,43.63636363636363,39.0,48.0,36.0,6.0,0.00936842680689,0.983806140058613
199,738dba2c-d7cb-488e-b971-0dc50c74bf4b,chase,30,100.0,2.566,1,309,31,12.0,18.0,9.0,17.0,9.0,31.0,2.0,20.0,42.0,43.63636363636363,39.0,48.0,36.0,6.0,0.00936842680689,0.983806140058613
200,6d712780-43b4-49f9-9bb8-c6ef920b78bd,chase,0,100.0,2.101,1,309,32,12.0,18.0,9.0,17.0,9.0,31.0,2.0,20.0,42.0,43.63636363636363,39.0,48.0,36.0,6.0,0.00936842680689,0.983806140058613
201,5ce017a9-f595-403c-a861-53e49993751a,wander,180,0.0,2.754,1,309,33,12.0,18.0,9.0,17.0,9.0,31.0,2.0,20.0,42.0,43.63636363636363,39.0,48.0,36.0,6.0,0.00936842680689,0.983806140058613
202,2d4bdbd9-d1de-4787-8cc8-a317b9d4c68d,wander,180,0.0,7.121,1,309,34,12.0,18.0,9.0,17.0,9.0,31.0,2.0,20.0,42.0,43.63636363636363,39.0,48.0,36.0,6.0,0.00936842680689,0.983806140058613
203,184c8795-2f00-4c7d-bc10-bd7de3066a20,chase,60,100.0,3.195,1,309,35,12.0,18.0,9.0,17.0,9.0,31.0,2.0,20.0,42.0,43.63636363636363,39.0,48.0,36.0,6.0,0.00936842680689,0.983806140058613
204,7ef8daac-db75-4ee8-a071-f88ace7368fa,chase,60,100.0,3.067,1,309,36,12.0,18.0,9.0,17.0,9.0,31.0,2.0,20.0,42.0,43.63636363636363,39.0,48.0,36.0,6.0,0.00936842680689,0.983806140058613
205,46975d67-ead1-4d29-93d2-9fbd40dad49d,wander,180,0.0,2.558,0,309,37,12.0,18.0,9.0,17.0,9.0,31.0,2.0,20.0,42.0,43.63636363636363,39.0,48.0,36.0,6.0,0.00936842680689,0.983806140058613
206,bc18f2bb-8e1a-4fcf-bc63-d56da485f828,chase,90,100.0,2.837,1,309,38,12.0,18.0,9.0,17.0,9.0,31.0,2.0,20.0,42.0,43.63636363636363,39.0,48.0,36.0,6.0,0.00936842680689,0.983806140058613
207,7da2bf99-2525-456c-889d-33e4d57cefac,chase,150,0.0,2.505,1,309,39,12.0,18.0,9.0,17.0,9.0,31.0,2.0,20.0,42.0,43.63636363636363,39.0,48.0,36.0,6.0,0.00936842680689,0.983806140058613
208,e4dd3e31-b4f2-4f66-9e70-0665b6bcd089,chase,30,100.0,3.462,1,309,40,12.0,18.0,9.0,17.0,9.0,31.0,2.0,20.0,42.0,43.63636363636363,39.0,48.0,36.0,6.0,0.00936842680689,0.983806140058613
209,f9e978d5-51e5-401a-8c9a-df747f2dec53,chase,0,100.0,2.252,1,309,41,12.0,18.0,9.0,17.0,9.0,31.0,2.0,20.0,42.0,43.63636363636363,39.0,48.0,36.0,6.0,0.00936842680689,0.983806140058613
210,7f76ce9f-1463-4e78-87a4-6a54cd80ee88,chase,90,0.0,2.28,1,309,42,12.0,18.0,9.0,17.0,9.0,31.0,2.0,20.0,42.0,43.63636363636363,39.0,48.0,36.0,6.0,0.00936842680689,0.983806140058613
211,21ca5095-0a92-499b-9d26-d8a5f4a0841a,wander,180,0.0,2.283,0,309,43,12.0,18.0,9.0,17.0,9.0,31.0,2.0,20.0,42.0,43.63636363636363,39.0,48.0,36.0,6.0,0.00936842680689,0.983806140058613
212,93865245-a3be-41b2-a17e-29b2b6043800,chase,90,0.0,2.931,1,309,44,12.0,18.0,9.0,17.0,9.0,31.0,2.0,20.0,42.0,43.63636363636363,39.0,48.0,36.0,6.0,0.00936842680689,0.983806140058613
213,dbce0a8f-ba45-4265-a60e-b98acd0e16d0,chase,150,0.0,2.287,1,309,45,12.0,18.0,9.0,17.0,9.0,31.0,2.0,20.0,42.0,43.63636363636363,39.0,48.0,36.0,6.0,0.00936842680689,0.983806140058613
214,6164475a-8bff-4ee0-8fef-043a34cd7da5,chase,120,0.0,2.516,1,309,46,12.0,18.0,9.0,17.0,9.0,31.0,2.0,20.0,42.0,43.63636363636363,39.0,48.0,36.0,6.0,0.00936842680689,0.983806140058613
215,24724e9a-8a79-4ab8-a58f-e007c5d00714,chase,120,100.0,2.457,1,309,47,12.0,18.0,9.0,17.0,9.0,31.0,2.0,20.0,42.0,43.63636363636363,39.0,48.0,36.0,6.0,0.00936842680689,0.983806140058613
216,116d4cf9-2d22-4e06-8fbf-248789f8212c,chase,150,0.0,2.712,0,309,48,12.0,18.0,9.0,17.0,9.0,31.0,2.0,20.0,42.0,43.63636363636363,39.0,48.0,36.0,6.0,0.00936842680689,0.983806140058613
217,cd35aaa0-2e49-4c68-9db3-f26fb9be29c5,chase,0,100.0,2.353,1,309,49,12.0,18.0,9.0,17.0,9.0,31.0,2.0,20.0,42.0,43.63636363636363,39.0,48.0,36.0,6.0,0.00936842680689,0.983806140058613
218,3dbf8de7-1bf7-4a43-a5e3-4366a94ea690,chase,90,100.0,2.189,1,309,50,12.0,18.0,9.0,17.0,9.0,31.0,2.0,20.0,42.0,43.63636363636363,39.0,48.0,36.0,6.0,0.00936842680689,0.983806140058613
219,c1b6f573-136b-414a-a6ec-8628f66a51e1,chase,150,0.0,2.517,1,309,51,12.0,18.0,9.0,17.0,9.0,31.0,2.0,20.0,42.0,43.63636363636363,39.0,48.0,36.0,6.0,0.00936842680689,0.983806140058613
220,0ea90462-f5e2-47a7-bd4b-2ea1c0bb7293,chase,60,100.0,2.518,1,309,52,12.0,18.0,9.0,17.0,9.0,31.0,2.0,20.0,42.0,43.63636363636363,39.0,48.0,36.0,6.0,0.00936842680689,0.983806140058613
221,9d561139-a905-406b-83a0-38ea62293ed9,chase,90,100.0,3.713,1,309,53,12.0,18.0,9.0,17.0,9.0,31.0,2.0,20.0,42.0,43.63636363636363,39.0,48.0,36.0,6.0,0.00936842680689,0.983806140058613
222,2b3090fe-a6e0-4e32-8e43-767b0d526444,chase,60,100.0,2.905,1,309,54,12.0,18.0,9.0,17.0,9.0,31.0,2.0,20.0,42.0,43.63636363636363,39.0,48.0,36.0,6.0,0.00936842680689,0.983806140058613
223,dad72227-6303-403d-8c8f-61b79d192ff4,chase,120,0.0,2.858,0,309,55,12.0,18.0,9.0,17.0,9.0,31.0,2.0,20.0,42.0,43.63636363636363,39.0,48.0,36.0,6.0,0.00936842680689,0.983806140058613
224,1c695094-312c-450a-ac7f-f994dabb958d,wander,180,0.0,2.201,1,309,56,12.0,18.0,9.0,17.0,9.0,31.0,2.0,20.0,42.0,43.63636363636363,39.0,48.0,36.0,6.0,0.00936842680689,0.983806140058613
225,12ba80f8-98cb-4c76-836d-72c2d6364a8e,chase,120,0.0,2.946,1,309,57,12.0,18.0,9.0,17.0,9.0,31.0,2.0,20.0,42.0,43.63636363636363,39.0,48.0,36.0,6.0,0.00936842680689,0.983806140058613
226,c5cf3c4d-84e7-4c90-a33b-9d7db4b01300,chase,0,100.0,3.445,1,309,58,12.0,18.0,9.0,17.0,9.0,31.0,2.0,20.0,42.0,43.63636363636363,39.0,48.0,36.0,6.0,0.00936842680689,0.983806140058613
227,58ff2cb6-e661-4be4-945c-d3f9ab5180c6,chase,150,0.0,2.981,1,309,59,12.0,18.0,9.0,17.0,9.0,31.0,2.0,20.0,42.0,43.63636363636363,39.0,48.0,36.0,6.0,0.00936842680689,0.983806140058613
228,4b3782e4-fafc-4dd1-96aa-9b339f19d004,chase,0,100.0,2.136,1,309,60,12.0,18.0,9.0,17.0,9.0,31.0,2.0,20.0,42.0,43.63636363636363,39.0,48.0,36.0,6.0,0.00936842680689,0.983806140058613
229,68be0cf8-ea92-4566-b84a-cbd60b2e5547,wander,180,0.0,2.402,0,309,61,12.0,18.0,9.0,17.0,9.0,31.0,2.0,20.0,42.0,43.63636363636363,39.0,48.0,36.0,6.0,0.00936842680689,0.983806140058613
230,496c052f-24cd-4731-b1a3-dc6a8076719b,chase,120,0.0,2.787,0,309,62,12.0,18.0,9.0,17.0,9.0,31.0,2.0,20.0,42.0,43.63636363636363,39.0,48.0,36.0,6.0,0.00936842680689,0.983806140058613
231,2383c97c-89dc-495f-8ec8-8a517a45ca6c,chase,90,0.0,4.733,1,309,63,12.0,18.0,9.0,17.0,9.0,31.0,2.0,20.0,42.0,43.63636363636363,39.0,48.0,36.0,6.0,0.00936842680689,0.983806140058613
232,884bc951-67a6-42bd-8ea7-ece0c8745d3f,chase,0,100.0,2.661,1,309,64,12.0,18.0,9.0,17.0,9.0,31.0,2.0,20.0,42.0,43.63636363636363,39.0,48.0,36.0,6.0,0.00936842680689,0.983806140058613
233,86edbcec-0b0a-41d9-9c9e-d5df43732237,chase,30,100.0,1.982,1,309,65,12.0,18.0,9.0,17.0,9.0,31.0,2.0,20.0,42.0,43.63636363636363,39.0,48.0,36.0,6.0,0.00936842680689,0.983806140058613
234,a680f7c6-9605-4481-a14d-c24d8d7b99bc,chase,30,100.0,1.853,1,309,66,12.0,18.0,9.0,17.0,9.0,31.0,2.0,20.0,42.0,43.63636363636363,39.0,48.0,36.0,6.0,0.00936842680689,0.983806140058613
235,411043c2-72c5-48c5-8cb7-febcebc40f98,chase,30,100.0,2.386,1,309,67,12.0,18.0,9.0,17.0,9.0,31.0,2.0,20.0,42.0,43.63636363636363,39.0,48.0,36.0,6.0,0.00936842680689,0.983806140058613
236,f4c4b671-d1de-4b8d-adad-ab6e05900d81,chase,90,0.0,2.725,1,309,68,12.0,18.0,9.0,17.0,9.0,31.0,2.0,20.0,42.0,43.63636363636363,39.0,48.0,36.0,6.0,0.00936842680689,0.983806140058613
237,599df54c-434d-46db-a56a-5698a4ae9a9e,chase,150,0.0,2.784,0,309,69,12.0,18.0,9.0,17.0,9.0,31.0,2.0,20.0,42.0,43.63636363636363,39.0,48.0,36.0,6.0,0.00936842680689,0.983806140058613
238,c8a1258a-1920-42bf-98e8-6c2dcc03a258,chase,60,100.0,2.973,1,309,70,12.0,18.0,9.0,17.0,9.0,31.0,2.0,20.0,42.0,43.63636363636363,39.0,48.0,36.0,6.0,0.00936842680689,0.983806140058613
239,64673dfa-0706-4fb2-a297-b988740292d5,chase,90,0.0,2.479,1,309,71,12.0,18.0,9.0,17.0,9.0,31.0,2.0,20.0,42.0,43.63636363636363,39.0,48.0,36.0,6.0,0.00936842680689,0.983806140058613
240,ae7d3eb8-dc5d-447b-b5c5-9b30fb3b8314,chase,60,100.0,3.628,1,309,72,12.0,18.0,9.0,17.0,9.0,31.0,2.0,20.0,42.0,43.63636363636363,39.0,48.0,36.0,6.0,0.00936842680689,0.983806140058613
241,45126725-a7eb-4318-86c4-1af84082e8b8,chase,30,100.0,3.274,1,309,73,12.0,18.0,9.0,17.0,9.0,31.0,2.0,20.0,42.0,43.63636363636363,39.0,48.0,36.0,6.0,0.00936842680689,0.983806140058613
242,64e6dcf6-35e5-46ef-8d1c-80a6786a24f6,chase,90,100.0,2.286,1,309,74,12.0,18.0,9.0,17.0,9.0,31.0,2.0,20.0,42.0,43.63636363636363,39.0,48.0,36.0,6.0,0.00936842680689,0.983806140058613
243,ebb2b54b-03ef-482e-98e6-c30b11e93f54,chase,90,100.0,2.651,1,309,75,12.0,18.0,9.0,17.0,9.0,31.0,2.0,20.0,42.0,43.63636363636363,39.0,48.0,36.0,6.0,0.00936842680689,0.983806140058613
244,2667cf6b-8ba8-4919-a871-ecd9b2852bce,chase,120,0.0,2.708,1,309,76,12.0,18.0,9.0,17.0,9.0,31.0,2.0,20.0,42.0,43.63636363636363,39.0,48.0,36.0,6.0,0.00936842680689,0.983806140058613
245,981221b7-2aa0-476c-b101-390d6cc3dd1a,chase,120,0.0,3.092,1,309,77,12.0,18.0,9.0,17.0,9.0,31.0,2.0,20.0,42.0,43.63636363636363,39.0,48.0,36.0,6.0,0.00936842680689,0.983806140058613
246,f8c01499-8009-448b-9476-a38a582d3db6,chase,150,0.0,2.634,1,309,78,12.0,18.0,9.0,17.0,9.0,31.0,2.0,20.0,42.0,43.63636363636363,39.0,48.0,36.0,6.0,0.00936842680689,0.983806140058613
247,977e0607-6332-4db4-ab12-9d17dce4dc85,wander,180,0.0,2.189,1,309,79,12.0,18.0,9.0,17.0,9.0,31.0,2.0,20.0,42.0,43.63636363636363,39.0,48.0,36.0,6.0,0.00936842680689,0.983806140058613
248,4fb58057-109b-400f-8b1d-d9afc6926a6c,chase,60,100.0,2.242,1,309,80,12.0,18.0,9.0,17.0,9.0,31.0,2.0,20.0,42.0,43.63636363636363,39.0,48.0,36.0,6.0,0.00936842680689,0.983806140058613
249,67a027b6-67e1-4784-aaad-ab48b5731cca,chase,0,100.0,2.159,1,309,81,12.0,18.0,9.0,17.0,9.0,31.0,2.0,20.0,42.0,43.63636363636363,39.0,48.0,36.0,6.0,0.00936842680689,0.983806140058613
250,f1ea4cb7-98d0-45a4-8269-16f1aebf05e3,chase,30,100.0,2.722,1,309,82,12.0,18.0,9.0,17.0,9.0,31.0,2.0,20.0,42.0,43.63636363636363,39.0,48.0,36.0,6.0,0.00936842680689,0.983806140058613
251,cf6ad30a-98ab-45d8-98d9-92352096afee,chase,30,100.0,2.733,1,309,83,12.0,18.0,9.0,17.0,9.0,31.0,2.0,20.0,42.0,43.63636363636363,39.0,48.0,36.0,6.0,0.00936842680689,0.983806140058613
252,e5de8a7b-b080-44aa-9279-c42f7862e210,chase,0,100.0,2.939,1,301,0,22.22222222222222,11.0,13.0,21.0,9.0,24.0,2.0,17.0,25.0,48.0,37.0,53.0,40.0,3.0,0.1396057219570826,0.8594197261940089
253,7d329546-ecf4-4612-8f00-c127c77d5d6c,chase,60,100.0,3.645,1,301,1,22.22222222222222,11.0,13.0,21.0,9.0,24.0,2.0,17.0,25.0,48.0,37.0,53.0,40.0,3.0,0.1396057219570826,0.8594197261940089
254,116d4cf9-2d22-4e06-8fbf-248789f8212c,chase,150,0.0,3.41,1,301,2,22.22222222222222,11.0,13.0,21.0,9.0,24.0,2.0,17.0,25.0,48.0,37.0,53.0,40.0,3.0,0.1396057219570826,0.8594197261940089
255,b75e278a-0fbd-474b-92b0-7038934dda4b,chase,30,100.0,3.199,1,301,3,22.22222222222222,11.0,13.0,21.0,9.0,24.0,2.0,17.0,25.0,48.0,37.0,53.0,40.0,3.0,0.1396057219570826,0.8594197261940089
256,7ef8daac-db75-4ee8-a071-f88ace7368fa,chase,60,100.0,3.074,1,301,4,22.22222222222222,11.0,13.0,21.0,9.0,24.0,2.0,17.0,25.0,48.0,37.0,53.0,40.0,3.0,0.1396057219570826,0.8594197261940089
257,a763322d-d8ef-4998-b3d2-05767e0273f2,chase,150,0.0,3.259,1,301,5,22.22222222222222,11.0,13.0,21.0,9.0,24.0,2.0,17.0,25.0,48.0,37.0,53.0,40.0,3.0,0.1396057219570826,0.8594197261940089
258,0ea90462-f5e2-47a7-bd4b-2ea1c0bb7293,chase,60,100.0,2.863,1,301,6,22.22222222222222,11.0,13.0,21.0,9.0,24.0,2.0,17.0,25.0,48.0,37.0,53.0,40.0,3.0,0.1396057219570826,0.8594197261940089
259,7da2bf99-2525-456c-889d-33e4d57cefac,chase,150,38.0,3.63,1,301,7,22.22222222222222,11.0,13.0,21.0,9.0,24.0,2.0,17.0,25.0,48.0,37.0,53.0,40.0,3.0,0.1396057219570826,0.8594197261940089
260,bee25e5c-74fd-4f63-b2e7-43b8af6bb08c,chase,90,100.0,3.061,1,301,8,22.22222222222222,11.0,13.0,21.0,9.0,24.0,2.0,17.0,25.0,48.0,37.0,53.0,40.0,3.0,0.1396057219570826,0.8594197261940089
261,68be0cf8-ea92-4566-b84a-cbd60b2e5547,wander,180,80.0,3.117,1,301,9,22.22222222222222,11.0,13.0,21.0,9.0,24.0,2.0,17.0,25.0,48.0,37.0,53.0,40.0,3.0,0.1396057219570826,0.8594197261940089
262,2437aa32-b54d-48e7-b20d-fafb63156eb0,chase,0,100.0,2.775,1,301,10,22.22222222222222,11.0,13.0,21.0,9.0,24.0,2.0,17.0,25.0,48.0,37.0,53.0,40.0,3.0,0.1396057219570826,0.8594197261940089
263,f1ea4cb7-98d0-45a4-8269-16f1aebf05e3,chase,30,100.0,4.107,1,301,11,22.22222222222222,11.0,13.0,21.0,9.0,24.0,2.0,17.0,25.0,48.0,37.0,53.0,40.0,3.0,0.1396057219570826,0.8594197261940089
264,1a3da098-0a3a-43af-af4a-a9fad5adcce6,chase,90,95.0,3.048,1,301,12,22.22222222222222,11.0,13.0,21.0,9.0,24.0,2.0,17.0,25.0,48.0,37.0,53.0,40.0,3.0,0.1396057219570826,0.8594197261940089
265,cf6ad30a-98ab-45d8-98d9-92352096afee,chase,30,100.0,2.85,1,301,13,22.22222222222222,11.0,13.0,21.0,9.0,24.0,2.0,17.0,25.0,48.0,37.0,53.0,40.0,3.0,0.1396057219570826,0.8594197261940089
266,4f1db8f7-63a7-4e49-b31b-12adcf107bf0,chase,150,0.0,4.434,1,301,14,22.22222222222222,11.0,13.0,21.0,9.0,24.0,2.0,17.0,25.0,48.0,37.0,53.0,40.0,3.0,0.1396057219570826,0.8594197261940089
267,5dbc75c6-6973-4ae1-aaf0-d3b84feb4723,wander,180,0.0,3.695,1,301,15,22.22222222222222,11.0,13.0,21.0,9.0,24.0,2.0,17.0,25.0,48.0,37.0,53.0,40.0,3.0,0.1396057219570826,0.8594197261940089
268,64e6dcf6-35e5-46ef-8d1c-80a6786a24f6,chase,90,100.0,3.048,1,301,16,22.22222222222222,11.0,13.0,21.0,9.0,24.0,2.0,17.0,25.0,48.0,37.0,53.0,40.0,3.0,0.1396057219570826,0.8594197261940089
269,981221b7-2aa0-476c-b101-390d6cc3dd1a,chase,120,30.0,3.521,1,301,17,22.22222222222222,11.0,13.0,21.0,9.0,24.0,2.0,17.0,25.0,48.0,37.0,53.0,40.0,3.0,0.1396057219570826,0.8594197261940089
270,67a027b6-67e1-4784-aaad-ab48b5731cca,chase,0,100.0,3.488,1,301,18,22.22222222222222,11.0,13.0,21.0,9.0,24.0,2.0,17.0,25.0,48.0,37.0,53.0,40.0,3.0,0.1396057219570826,0.8594197261940089
271,c40a4196-baf2-4992-afe5-aeca6b69a170,chase,30,100.0,3.184,1,301,19,22.22222222222222,11.0,13.0,21.0,9.0,24.0,2.0,17.0,25.0,48.0,37.0,53.0,40.0,3.0,0.1396057219570826,0.8594197261940089
272,884bc951-67a6-42bd-8ea7-ece0c8745d3f,chase,0,100.0,2.775,1,301,20,22.22222222222222,11.0,13.0,21.0,9.0,24.0,2.0,17.0,25.0,48.0,37.0,53.0,40.0,3.0,0.1396057219570826,0.8594197261940089
273,46975d67-ead1-4d29-93d2-9fbd40dad49d,wander,180,5.0,4.817,0,301,21,22.22222222222222,11.0,13.0,21.0,9.0,24.0,2.0,17.0,25.0,48.0,37.0,53.0,40.0,3.0,0.1396057219570826,0.8594197261940089
274,65c87d60-ca32-4b8c-862c-41cd8e585b4b,chase,0,100.0,2.931,1,301,22,22.22222222222222,11.0,13.0,21.0,9.0,24.0,2.0,17.0,25.0,48.0,37.0,53.0,40.0,3.0,0.1396057219570826,0.8594197261940089
275,c1b6f573-136b-414a-a6ec-8628f66a51e1,chase,150,0.0,3.985,1,301,23,22.22222222222222,11.0,13.0,21.0,9.0,24.0,2.0,17.0,25.0,48.0,37.0,53.0,40.0,3.0,0.1396057219570826,0.8594197261940089
276,398e7f33-6d63-47e3-9a9a-74e474cd8a1d,chase,30,100.0,2.819,1,301,24,22.22222222222222,11.0,13.0,21.0,9.0,24.0,2.0,17.0,25.0,48.0,37.0,53.0,40.0,3.0,0.1396057219570826,0.8594197261940089
277,8af66fd7-6ab4-47a3-a88c-02fd34772ac6,wander,180,28.0,3.118,1,301,25,22.22222222222222,11.0,13.0,21.0,9.0,24.0,2.0,17.0,25.0,48.0,37.0,53.0,40.0,3.0,0.1396057219570826,0.8594197261940089
278,7f76ce9f-1463-4e78-87a4-6a54cd80ee88,chase,90,85.0,3.006,1,301,26,22.22222222222222,11.0,13.0,21.0,9.0,24.0,2.0,17.0,25.0,48.0,37.0,53.0,40.0,3.0,0.1396057219570826,0.8594197261940089
279,ae7d3eb8-dc5d-447b-b5c5-9b30fb3b8314,chase,60,100.0,2.644,1,301,27,22.22222222222222,11.0,13.0,21.0,9.0,24.0,2.0,17.0,25.0,48.0,37.0,53.0,40.0,3.0,0.1396057219570826,0.8594197261940089
280,cd9d4d31-b57e-4c3d-86c6-267ce9eec948,chase,60,100.0,2.803,1,301,28,22.22222222222222,11.0,13.0,21.0,9.0,24.0,2.0,17.0,25.0,48.0,37.0,53.0,40.0,3.0,0.1396057219570826,0.8594197261940089
281,64673dfa-0706-4fb2-a297-b988740292d5,chase,90,87.0,3.017,1,301,29,22.22222222222222,11.0,13.0,21.0,9.0,24.0,2.0,17.0,25.0,48.0,37.0,53.0,40.0,3.0,0.1396057219570826,0.8594197261940089
282,9d561139-a905-406b-83a0-38ea62293ed9,chase,90,68.0,2.729,1,301,30,22.22222222222222,11.0,13.0,21.0,9.0,24.0,2.0,17.0,25.0,48.0,37.0,53.0,40.0,3.0,0.1396057219570826,0.8594197261940089
283,b3b1ce6f-50f4-4922-80d2-b53f06819db2,chase,120,96.0,3.091,1,301,31,22.22222222222222,11.0,13.0,21.0,9.0,24.0,2.0,17.0,25.0,48.0,37.0,53.0,40.0,3.0,0.1396057219570826,0.8594197261940089
284,738dba2c-d7cb-488e-b971-0dc50c74bf4b,chase,30,100.0,2.756,1,301,32,22.22222222222222,11.0,13.0,21.0,9.0,24.0,2.0,17.0,25.0,48.0,37.0,53.0,40.0,3.0,0.1396057219570826,0.8594197261940089
285,2b3090fe-a6e0-4e32-8e43-767b0d526444,chase,60,100.0,2.813,1,301,33,22.22222222222222,11.0,13.0,21.0,9.0,24.0,2.0,17.0,25.0,48.0,37.0,53.0,40.0,3.0,0.1396057219570826,0.8594197261940089
286,184c8795-2f00-4c7d-bc10-bd7de3066a20,chase,60,87.0,3.554,1,301,34,22.22222222222222,11.0,13.0,21.0,9.0,24.0,2.0,17.0,25.0,48.0,37.0,53.0,40.0,3.0,0.1396057219570826,0.8594197261940089
287,0ea38b84-b2dc-4072-b4b8-3dce5f53debc,chase,120,18.0,3.473,1,301,35,22.22222222222222,11.0,13.0,21.0,9.0,24.0,2.0,17.0,25.0,48.0,37.0,53.0,40.0,3.0,0.1396057219570826,0.8594197261940089
288,496c052f-24cd-4731-b1a3-dc6a8076719b,chase,120,59.0,3.036,1,301,36,22.22222222222222,11.0,13.0,21.0,9.0,24.0,2.0,17.0,25.0,48.0,37.0,53.0,40.0,3.0,0.1396057219570826,0.8594197261940089
289,18c4991b-f4d6-47a6-b29a-81f425410c0e,chase,120,4.0,3.849,1,301,37,22.22222222222222,11.0,13.0,21.0,9.0,24.0,2.0,17.0,25.0,48.0,37.0,53.0,40.0,3.0,0.1396057219570826,0.8594197261940089
290,58ff2cb6-e661-4be4-945c-d3f9ab5180c6,chase,150,68.0,2.727,1,301,38,22.22222222222222,11.0,13.0,21.0,9.0,24.0,2.0,17.0,25.0,48.0,37.0,53.0,40.0,3.0,0.1396057219570826,0.8594197261940089
291,b70d0259-cb69-48f1-b026-46452cf6e70f,wander,180,4.0,3.316,0,301,39,22.22222222222222,11.0,13.0,21.0,9.0,24.0,2.0,17.0,25.0,48.0,37.0,53.0,40.0,3.0,0.1396057219570826,0.8594197261940089
292,1c695094-312c-450a-ac7f-f994dabb958d,wander,180,0.0,2.578,0,301,40,22.22222222222222,11.0,13.0,21.0,9.0,24.0,2.0,17.0,25.0,48.0,37.0,53.0,40.0,3.0,0.1396057219570826,0.8594197261940089
293,4e913eda-699f-4aa1-831d-c82fb169914c,chase,60,91.0,2.955,1,301,41,22.22222222222222,11.0,13.0,21.0,9.0,24.0,2.0,17.0,25.0,48.0,37.0,53.0,40.0,3.0,0.1396057219570826,0.8594197261940089
294,12ba80f8-98cb-4c76-836d-72c2d6364a8e,chase,120,22.0,2.953,1,301,42,22.22222222222222,11.0,13.0,21.0,9.0,24.0,2.0,17.0,25.0,48.0,37.0,53.0,40.0,3.0,0.1396057219570826,0.8594197261940089
295,2d4bdbd9-d1de-4787-8cc8-a317b9d4c68d,wander,180,0.0,3.854,1,301,43,22.22222222222222,11.0,13.0,21.0,9.0,24.0,2.0,17.0,25.0,48.0,37.0,53.0,40.0,3.0,0.1396057219570826,0.8594197261940089
296,86edbcec-0b0a-41d9-9c9e-d5df43732237,chase,30,100.0,2.933,1,301,44,22.22222222222222,11.0,13.0,21.0,9.0,24.0,2.0,17.0,25.0,48.0,37.0,53.0,40.0,3.0,0.1396057219570826,0.8594197261940089
297,4fb304a5-e4d9-4469-a34d-360a50cb0d09,chase,60,96.0,3.954,1,301,45,22.22222222222222,11.0,13.0,21.0,9.0,24.0,2.0,17.0,25.0,48.0,37.0,53.0,40.0,3.0,0.1396057219570826,0.8594197261940089
298,977e0607-6332-4db4-ab12-9d17dce4dc85,wander,180,3.0,4.802,1,301,46,22.22222222222222,11.0,13.0,21.0,9.0,24.0,2.0,17.0,25.0,48.0,37.0,53.0,40.0,3.0,0.1396057219570826,0.8594197261940089
299,6164475a-8bff-4ee0-8fef-043a34cd7da5,chase,120,26.0,3.261,1,301,47,22.22222222222222,11.0,13.0,21.0,9.0,24.0,2.0,17.0,25.0,48.0,37.0,53.0,40.0,3.0,0.1396057219570826,0.8594197261940089
300,411043c2-72c5-48c5-8cb7-febcebc40f98,chase,30,100.0,3.204,1,301,48,22.22222222222222,11.0,13.0,21.0,9.0,24.0,2.0,17.0,25.0,48.0,37.0,53.0,40.0,3.0,0.1396057219570826,0.8594197261940089
301,2cf66fb7-ab1d-466b-be40-d9f856dc213f,wander,180,14.0,3.606,1,301,49,22.22222222222222,11.0,13.0,21.0,9.0,24.0,2.0,17.0,25.0,48.0,37.0,53.0,40.0,3.0,0.1396057219570826,0.8594197261940089
302,5ce017a9-f595-403c-a861-53e49993751a,wander,180,24.0,2.901,1,301,50,22.22222222222222,11.0,13.0,21.0,9.0,24.0,2.0,17.0,25.0,48.0,37.0,53.0,40.0,3.0,0.1396057219570826,0.8594197261940089
303,c4c5c990-2898-4b30-8454-9be48985cf75,chase,150,65.0,3.108,1,301,51,22.22222222222222,11.0,13.0,21.0,9.0,24.0,2.0,17.0,25.0,48.0,37.0,53.0,40.0,3.0,0.1396057219570826,0.8594197261940089
304,6d712780-43b4-49f9-9bb8-c6ef920b78bd,chase,0,100.0,2.76,1,301,52,22.22222222222222,11.0,13.0,21.0,9.0,24.0,2.0,17.0,25.0,48.0,37.0,53.0,40.0,3.0,0.1396057219570826,0.8594197261940089
305,f9e978d5-51e5-401a-8c9a-df747f2dec53,chase,0,100.0,2.791,1,301,53,22.22222222222222,11.0,13.0,21.0,9.0,24.0,2.0,17.0,25.0,48.0,37.0,53.0,40.0,3.0,0.1396057219570826,0.8594197261940089
306,93865245-a3be-41b2-a17e-29b2b6043800,chase,90,76.0,2.855,1,301,54,22.22222222222222,11.0,13.0,21.0,9.0,24.0,2.0,17.0,25.0,48.0,37.0,53.0,40.0,3.0,0.1396057219570826,0.8594197261940089
307,3dbf8de7-1bf7-4a43-a5e3-4366a94ea690,chase,90,73.0,2.694,1,301,55,22.22222222222222,11.0,13.0,21.0,9.0,24.0,2.0,17.0,25.0,48.0,37.0,53.0,40.0,3.0,0.1396057219570826,0.8594197261940089
308,21ca5095-0a92-499b-9d26-d8a5f4a0841a,wander,180,0.0,3.713,0,301,56,22.22222222222222,11.0,13.0,21.0,9.0,24.0,2.0,17.0,25.0,48.0,37.0,53.0,40.0,3.0,0.1396057219570826,0.8594197261940089
309,4fb58057-109b-400f-8b1d-d9afc6926a6c,chase,60,100.0,2.896,1,301,57,22.22222222222222,11.0,13.0,21.0,9.0,24.0,2.0,17.0,25.0,48.0,37.0,53.0,40.0,3.0,0.1396057219570826,0.8594197261940089
310,24724e9a-8a79-4ab8-a58f-e007c5d00714,chase,120,67.0,3.363,1,301,58,22.22222222222222,11.0,13.0,21.0,9.0,24.0,2.0,17.0,25.0,48.0,37.0,53.0,40.0,3.0,0.1396057219570826,0.8594197261940089
311,f8c01499-8009-448b-9476-a38a582d3db6,chase,150,72.0,2.676,1,301,59,22.22222222222222,11.0,13.0,21.0,9.0,24.0,2.0,17.0,25.0,48.0,37.0,53.0,40.0,3.0,0.1396057219570826,0.8594197261940089
312,e4dd3e31-b4f2-4f66-9e70-0665b6bcd089,chase,30,100.0,2.586,1,301,60,22.22222222222222,11.0,13.0,21.0,9.0,24.0,2.0,17.0,25.0,48.0,37.0,53.0,40.0,3.0,0.1396057219570826,0.8594197261940089
313,c8a1258a-1920-42bf-98e8-6c2dcc03a258,chase,60,100.0,2.802,1,301,61,22.22222222222222,11.0,13.0,21.0,9.0,24.0,2.0,17.0,25.0,48.0,37.0,53.0,40.0,3.0,0.1396057219570826,0.8594197261940089
314,92158ea9-b156-4e87-a2e3-ff0845033b9c,chase,150,9.0,4.736,1,301,62,22.22222222222222,11.0,13.0,21.0,9.0,24.0,2.0,17.0,25.0,48.0,37.0,53.0,40.0,3.0,0.1396057219570826,0.8594197261940089
315,ebb2b54b-03ef-482e-98e6-c30b11e93f54,chase,90,100.0,2.95,1,301,63,22.22222222222222,11.0,13.0,21.0,9.0,24.0,2.0,17.0,25.0,48.0,37.0,53.0,40.0,3.0,0.1396057219570826,0.8594197261940089
316,d145a05f-e3c9-4244-b83b-2792e29b0493,chase,150,57.0,3.576,1,301,64,22.22222222222222,11.0,13.0,21.0,9.0,24.0,2.0,17.0,25.0,48.0,37.0,53.0,40.0,3.0,0.1396057219570826,0.8594197261940089
317,f4c4b671-d1de-4b8d-adad-ab6e05900d81,chase,90,78.0,3.34,1,301,65,22.22222222222222,11.0,13.0,21.0,9.0,24.0,2.0,17.0,25.0,48.0,37.0,53.0,40.0,3.0,0.1396057219570826,0.8594197261940089
318,a680f7c6-9605-4481-a14d-c24d8d7b99bc,chase,30,100.0,3.027,1,301,66,22.22222222222222,11.0,13.0,21.0,9.0,24.0,2.0,17.0,25.0,48.0,37.0,53.0,40.0,3.0,0.1396057219570826,0.8594197261940089
319,42d1593c-1903-4c06-8304-6d2b29c5be37,chase,30,98.0,6.7,1,301,67,22.22222222222222,11.0,13.0,21.0,9.0,24.0,2.0,17.0,25.0,48.0,37.0,53.0,40.0,3.0,0.1396057219570826,0.8594197261940089
320,599df54c-434d-46db-a56a-5698a4ae9a9e,chase,150,0.0,3.528,1,301,68,22.22222222222222,11.0,13.0,21.0,9.0,24.0,2.0,17.0,25.0,48.0,37.0,53.0,40.0,3.0,0.1396057219570826,0.8594197261940089
321,45126725-a7eb-4318-86c4-1af84082e8b8,chase,30,100.0,2.721,1,301,69,22.22222222222222,11.0,13.0,21.0,9.0,24.0,2.0,17.0,25.0,48.0,37.0,53.0,40.0,3.0,0.1396057219570826,0.8594197261940089
322,2667cf6b-8ba8-4919-a871-ecd9b2852bce,chase,120,6.0,2.828,1,301,70,22.22222222222222,11.0,13.0,21.0,9.0,24.0,2.0,17.0,25.0,48.0,37.0,53.0,40.0,3.0,0.1396057219570826,0.8594197261940089
323,c798455f-e351-48ee-b7cd-d27d6bb7ad61,chase,60,100.0,3.107,1,301,71,22.22222222222222,11.0,13.0,21.0,9.0,24.0,2.0,17.0,25.0,48.0,37.0,53.0,40.0,3.0,0.1396057219570826,0.8594197261940089
324,dbce0a8f-ba45-4265-a60e-b98acd0e16d0,chase,150,23.0,3.752,1,301,72,22.22222222222222,11.0,13.0,21.0,9.0,24.0,2.0,17.0,25.0,48.0,37.0,53.0,40.0,3.0,0.1396057219570826,0.8594197261940089
325,cd35aaa0-2e49-4c68-9db3-f26fb9be29c5,chase,0,100.0,2.831,1,301,73,22.22222222222222,11.0,13.0,21.0,9.0,24.0,2.0,17.0,25.0,48.0,37.0,53.0,40.0,3.0,0.1396057219570826,0.8594197261940089
326,4b3782e4-fafc-4dd1-96aa-9b339f19d004,chase,0,100.0,3.274,1,301,74,22.22222222222222,11.0,13.0,21.0,9.0,24.0,2.0,17.0,25.0,48.0,37.0,53.0,40.0,3.0,0.1396057219570826,0.8594197261940089
327,84e883bc-3ec7-4bef-bdb3-2016001d7f47,chase,120,17.0,3.119,1,301,75,22.22222222222222,11.0,13.0,21.0,9.0,24.0,2.0,17.0,25.0,48.0,37.0,53.0,40.0,3.0,0.1396057219570826,0.8594197261940089
328,dad72227-6303-403d-8c8f-61b79d192ff4,chase,120,30.0,3.332,1,301,76,22.22222222222222,11.0,13.0,21.0,9.0,24.0,2.0,17.0,25.0,48.0,37.0,53.0,40.0,3.0,0.1396057219570826,0.8594197261940089
329,c5cf3c4d-84e7-4c90-a33b-9d7db4b01300,chase,0,100.0,2.796,1,301,77,22.22222222222222,11.0,13.0,21.0,9.0,24.0,2.0,17.0,25.0,48.0,37.0,53.0,40.0,3.0,0.1396057219570826,0.8594197261940089
330,bc18f2bb-8e1a-4fcf-bc63-d56da485f828,chase,90,88.0,2.891,1,301,78,22.22222222222222,11.0,13.0,21.0,9.0,24.0,2.0,17.0,25.0,48.0,37.0,53.0,40.0,3.0,0.1396057219570826,0.8594197261940089
331,c51864d5-4cd9-435e-8d8b-210c8454248a,chase,0,100.0,2.564,1,301,79,22.22222222222222,11.0,13.0,21.0,9.0,24.0,2.0,17.0,25.0,48.0,37.0,53.0,40.0,3.0,0.1396057219570826,0.8594197261940089
332,2383c97c-89dc-495f-8ec8-8a517a45ca6c,chase,90,87.0,2.791,1,301,80,22.22222222222222,11.0,13.0,21.0,9.0,24.0,2.0,17.0,25.0,48.0,37.0,53.0,40.0,3.0,0.1396057219570826,0.8594197261940089
333,81f068e9-cbbc-4d88-8e31-206979547986,chase,120,100.0,2.931,1,301,81,22.22222222222222,11.0,13.0,21.0,9.0,24.0,2.0,17.0,25.0,48.0,37.0,53.0,40.0,3.0,0.1396057219570826,0.8594197261940089
334,1d35e834-4947-46b2-9cbd-816ea4587c6f,wander,180,0.0,7.633,1,301,82,22.22222222222222,11.0,13.0,21.0,9.0,24.0,2.0,17.0,25.0,48.0,37.0,53.0,40.0,3.0,0.1396057219570826,0.8594197261940089
335,068dfd59-6b9c-4eca-b60c-7eb73cc72305,chase,0,100.0,2.889,1,301,83,22.22222222222222,11.0,13.0,21.0,9.0,24.0,2.0,17.0,25.0,48.0,37.0,53.0,40.0,3.0,0.1396057219570826,0.8594197261940089
336,8af66fd7-6ab4-47a3-a88c-02fd34772ac6,wander,180,21.0,4.162,0,304,0,7.0,10.0,4.0,13.0,2.0,26.0,2.0,26.0,47.0,54.0,45.0,47.0,37.0,8.0,0.0999071340168046,0.6241654309435934
337,58ff2cb6-e661-4be4-945c-d3f9ab5180c6,chase,150,46.0,3.078,1,304,1,7.0,10.0,4.0,13.0,2.0,26.0,2.0,26.0,47.0,54.0,45.0,47.0,37.0,8.0,0.0999071340168046,0.6241654309435934
338,92158ea9-b156-4e87-a2e3-ff0845033b9c,chase,150,11.0,3.394,1,304,2,7.0,10.0,4.0,13.0,2.0,26.0,2.0,26.0,47.0,54.0,45.0,47.0,37.0,8.0,0.0999071340168046,0.6241654309435934
339,7da2bf99-2525-456c-889d-33e4d57cefac,chase,150,59.0,2.926,1,304,3,7.0,10.0,4.0,13.0,2.0,26.0,2.0,26.0,47.0,54.0,45.0,47.0,37.0,8.0,0.0999071340168046,0.6241654309435934
340,884bc951-67a6-42bd-8ea7-ece0c8745d3f,chase,0,97.0,3.186,1,304,4,7.0,10.0,4.0,13.0,2.0,26.0,2.0,26.0,47.0,54.0,45.0,47.0,37.0,8.0,0.0999071340168046,0.6241654309435934
341,4e913eda-699f-4aa1-831d-c82fb169914c,chase,60,90.0,2.683,1,304,5,7.0,10.0,4.0,13.0,2.0,26.0,2.0,26.0,47.0,54.0,45.0,47.0,37.0,8.0,0.0999071340168046,0.6241654309435934
342,6d712780-43b4-49f9-9bb8-c6ef920b78bd,chase,0,89.0,3.213,1,304,6,7.0,10.0,4.0,13.0,2.0,26.0,2.0,26.0,47.0,54.0,45.0,47.0,37.0,8.0,0.0999071340168046,0.6241654309435934
343,4fb58057-109b-400f-8b1d-d9afc6926a6c,chase,60,88.0,2.945,1,304,7,7.0,10.0,4.0,13.0,2.0,26.0,2.0,26.0,47.0,54.0,45.0,47.0,37.0,8.0,0.0999071340168046,0.6241654309435934
344,18c4991b-f4d6-47a6-b29a-81f425410c0e,chase,120,58.0,4.108,1,304,8,7.0,10.0,4.0,13.0,2.0,26.0,2.0,26.0,47.0,54.0,45.0,47.0,37.0,8.0,0.0999071340168046,0.6241654309435934
345,ebb2b54b-03ef-482e-98e6-c30b11e93f54,chase,90,84.0,3.409,1,304,9,7.0,10.0,4.0,13.0,2.0,26.0,2.0,26.0,47.0,54.0,45.0,47.0,37.0,8.0,0.0999071340168046,0.6241654309435934
346,a680f7c6-9605-4481-a14d-c24d8d7b99bc,chase,30,93.0,3.333,1,304,10,7.0,10.0,4.0,13.0,2.0,26.0,2.0,26.0,47.0,54.0,45.0,47.0,37.0,8.0,0.0999071340168046,0.6241654309435934
347,184c8795-2f00-4c7d-bc10-bd7de3066a20,chase,60,74.0,2.403,1,304,11,7.0,10.0,4.0,13.0,2.0,26.0,2.0,26.0,47.0,54.0,45.0,47.0,37.0,8.0,0.0999071340168046,0.6241654309435934
348,e4dd3e31-b4f2-4f66-9e70-0665b6bcd089,chase,30,91.0,2.551,1,304,12,7.0,10.0,4.0,13.0,2.0,26.0,2.0,26.0,47.0,54.0,45.0,47.0,37.0,8.0,0.0999071340168046,0.6241654309435934
349,4fb304a5-e4d9-4469-a34d-360a50cb0d09,chase,60,77.0,2.335,1,304,13,7.0,10.0,4.0,13.0,2.0,26.0,2.0,26.0,47.0,54.0,45.0,47.0,37.0,8.0,0.0999071340168046,0.6241654309435934
350,981221b7-2aa0-476c-b101-390d6cc3dd1a,chase,120,37.0,2.739,1,304,14,7.0,10.0,4.0,13.0,2.0,26.0,2.0,26.0,47.0,54.0,45.0,47.0,37.0,8.0,0.0999071340168046,0.6241654309435934
351,1c695094-312c-450a-ac7f-f994dabb958d,wander,180,21.0,3.293,0,304,15,7.0,10.0,4.0,13.0,2.0,26.0,2.0,26.0,47.0,54.0,45.0,47.0,37.0,8.0,0.0999071340168046,0.6241654309435934
352,dad72227-6303-403d-8c8f-61b79d192ff4,chase,120,74.0,3.691,1,304,16,7.0,10.0,4.0,13.0,2.0,26.0,2.0,26.0,47.0,54.0,45.0,47.0,37.0,8.0,0.0999071340168046,0.6241654309435934
353,24724e9a-8a79-4ab8-a58f-e007c5d00714,chase,120,61.0,3.103,1,304,17,7.0,10.0,4.0,13.0,2.0,26.0,2.0,26.0,47.0,54.0,45.0,47.0,37.0,8.0,0.0999071340168046,0.6241654309435934
354,1d35e834-4947-46b2-9cbd-816ea4587c6f,wander,180,9.0,2.917,1,304,18,7.0,10.0,4.0,13.0,2.0,26.0,2.0,26.0,47.0,54.0,45.0,47.0,37.0,8.0,0.0999071340168046,0.6241654309435934
355,c40a4196-baf2-4992-afe5-aeca6b69a170,chase,30,89.0,4.349,1,304,19,7.0,10.0,4.0,13.0,2.0,26.0,2.0,26.0,47.0,54.0,45.0,47.0,37.0,8.0,0.0999071340168046,0.6241654309435934
356,599df54c-434d-46db-a56a-5698a4ae9a9e,chase,150,3.0,2.648,0,304,20,7.0,10.0,4.0,13.0,2.0,26.0,2.0,26.0,47.0,54.0,45.0,47.0,37.0,8.0,0.0999071340168046,0.6241654309435934
357,bee25e5c-74fd-4f63-b2e7-43b8af6bb08c,chase,90,71.0,2.654,1,304,21,7.0,10.0,4.0,13.0,2.0,26.0,2.0,26.0,47.0,54.0,45.0,47.0,37.0,8.0,0.0999071340168046,0.6241654309435934
358,ae7d3eb8-dc5d-447b-b5c5-9b30fb3b8314,chase,60,75.0,2.32,1,304,22,7.0,10.0,4.0,13.0,2.0,26.0,2.0,26.0,47.0,54.0,45.0,47.0,37.0,8.0,0.0999071340168046,0.6241654309435934
359,2667cf6b-8ba8-4919-a871-ecd9b2852bce,chase,120,56.0,2.95,1,304,23,7.0,10.0,4.0,13.0,2.0,26.0,2.0,26.0,47.0,54.0,45.0,47.0,37.0,8.0,0.0999071340168046,0.6241654309435934
360,116d4cf9-2d22-4e06-8fbf-248789f8212c,chase,150,12.0,2.218,0,304,24,7.0,10.0,4.0,13.0,2.0,26.0,2.0,26.0,47.0,54.0,45.0,47.0,37.0,8.0,0.0999071340168046,0.6241654309435934
361,42d1593c-1903-4c06-8304-6d2b29c5be37,chase,30,91.0,2.342,1,304,25,7.0,10.0,4.0,13.0,2.0,26.0,2.0,26.0,47.0,54.0,45.0,47.0,37.0,8.0,0.0999071340168046,0.6241654309435934
362,4f1db8f7-63a7-4e49-b31b-12adcf107bf0,chase,150,18.0,2.261,1,304,26,7.0,10.0,4.0,13.0,2.0,26.0,2.0,26.0,47.0,54.0,45.0,47.0,37.0,8.0,0.0999071340168046,0.6241654309435934
363,2437aa32-b54d-48e7-b20d-fafb63156eb0,chase,0,84.0,2.041,1,304,27,7.0,10.0,4.0,13.0,2.0,26.0,2.0,26.0,47.0,54.0,45.0,47.0,37.0,8.0,0.0999071340168046,0.6241654309435934
364,cd9d4d31-b57e-4c3d-86c6-267ce9eec948,chase,60,91.0,2.274,1,304,28,7.0,10.0,4.0,13.0,2.0,26.0,2.0,26.0,47.0,54.0,45.0,47.0,37.0,8.0,0.0999071340168046,0.6241654309435934
365,3dbf8de7-1bf7-4a43-a5e3-4366a94ea690,chase,90,79.0,3.371,1,304,29,7.0,10.0,4.0,13.0,2.0,26.0,2.0,26.0,47.0,54.0,45.0,47.0,37.0,8.0,0.0999071340168046,0.6241654309435934
366,7d329546-ecf4-4612-8f00-c127c77d5d6c,chase,60,90.0,2.081,1,304,30,7.0,10.0,4.0,13.0,2.0,26.0,2.0,26.0,47.0,54.0,45.0,47.0,37.0,8.0,0.0999071340168046,0.6241654309435934
367,068dfd59-6b9c-4eca-b60c-7eb73cc72305,chase,0,96.0,2.128,1,304,31,7.0,10.0,4.0,13.0,2.0,26.0,2.0,26.0,47.0,54.0,45.0,47.0,37.0,8.0,0.0999071340168046,0.6241654309435934
368,84e883bc-3ec7-4bef-bdb3-2016001d7f47,chase,120,57.0,1.764,1,304,32,7.0,10.0,4.0,13.0,2.0,26.0,2.0,26.0,47.0,54.0,45.0,47.0,37.0,8.0,0.0999071340168046,0.6241654309435934
369,c8a1258a-1920-42bf-98e8-6c2dcc03a258,chase,60,85.0,2.499,1,304,33,7.0,10.0,4.0,13.0,2.0,26.0,2.0,26.0,47.0,54.0,45.0,47.0,37.0,8.0,0.0999071340168046,0.6241654309435934
370,411043c2-72c5-48c5-8cb7-febcebc40f98,chase,30,82.0,2.058,1,304,34,7.0,10.0,4.0,13.0,2.0,26.0,2.0,26.0,47.0,54.0,45.0,47.0,37.0,8.0,0.0999071340168046,0.6241654309435934
371,f8c01499-8009-448b-9476-a38a582d3db6,chase,150,36.0,2.521,1,304,35,7.0,10.0,4.0,13.0,2.0,26.0,2.0,26.0,47.0,54.0,45.0,47.0,37.0,8.0,0.0999071340168046,0.6241654309435934
372,46975d67-ead1-4d29-93d2-9fbd40dad49d,wander,180,2.0,1.523,0,304,36,7.0,10.0,4.0,13.0,2.0,26.0,2.0,26.0,47.0,54.0,45.0,47.0,37.0,8.0,0.0999071340168046,0.6241654309435934
373,496c052f-24cd-4731-b1a3-dc6a8076719b,chase,120,75.0,2.495,1,304,37,7.0,10.0,4.0,13.0,2.0,26.0,2.0,26.0,47.0,54.0,45.0,47.0,37.0,8.0,0.0999071340168046,0.6241654309435934
374,0ea90462-f5e2-47a7-bd4b-2ea1c0bb7293,chase,60,85.0,2.941,1,304,38,7.0,10.0,4.0,13.0,2.0,26.0,2.0,26.0,47.0,54.0,45.0,47.0,37.0,8.0,0.0999071340168046,0.6241654309435934
375,2383c97c-89dc-495f-8ec8-8a517a45ca6c,chase,90,73.0,1.828,1,304,39,7.0,10.0,4.0,13.0,2.0,26.0,2.0,26.0,47.0,54.0,45.0,47.0,37.0,8.0,0.0999071340168046,0.6241654309435934
376,398e7f33-6d63-47e3-9a9a-74e474cd8a1d,chase,30,92.0,2.408,1,304,40,7.0,10.0,4.0,13.0,2.0,26.0,2.0,26.0,47.0,54.0,45.0,47.0,37.0,8.0,0.0999071340168046,0.6241654309435934
377,a763322d-d8ef-4998-b3d2-05767e0273f2,chase,150,43.0,2.441,0,304,41,7.0,10.0,4.0,13.0,2.0,26.0,2.0,26.0,47.0,54.0,45.0,47.0,37.0,8.0,0.0999071340168046,0.6241654309435934
378,2b3090fe-a6e0-4e32-8e43-767b0d526444,chase,60,82.0,1.916,1,304,42,7.0,10.0,4.0,13.0,2.0,26.0,2.0,26.0,47.0,54.0,45.0,47.0,37.0,8.0,0.0999071340168046,0.6241654309435934
379,64673dfa-0706-4fb2-a297-b988740292d5,chase,90,79.0,2.227,1,304,43,7.0,10.0,4.0,13.0,2.0,26.0,2.0,26.0,47.0,54.0,45.0,47.0,37.0,8.0,0.0999071340168046,0.6241654309435934
380,e5de8a7b-b080-44aa-9279-c42f7862e210,chase,0,87.0,1.614,1,304,44,7.0,10.0,4.0,13.0,2.0,26.0,2.0,26.0,47.0,54.0,45.0,47.0,37.0,8.0,0.0999071340168046,0.6241654309435934
381,81f068e9-cbbc-4d88-8e31-206979547986,chase,120,42.0,2.07,0,304,45,7.0,10.0,4.0,13.0,2.0,26.0,2.0,26.0,47.0,54.0,45.0,47.0,37.0,8.0,0.0999071340168046,0.6241654309435934
382,d145a05f-e3c9-4244-b83b-2792e29b0493,chase,150,39.0,2.131,1,304,46,7.0,10.0,4.0,13.0,2.0,26.0,2.0,26.0,47.0,54.0,45.0,47.0,37.0,8.0,0.0999071340168046,0.6241654309435934
383,b70d0259-cb69-48f1-b026-46452cf6e70f,wander,180,18.0,2.502,1,304,47,7.0,10.0,4.0,13.0,2.0,26.0,2.0,26.0,47.0,54.0,45.0,47.0,37.0,8.0,0.0999071340168046,0.6241654309435934
384,12ba80f8-98cb-4c76-836d-72c2d6364a8e,chase,120,38.0,2.256,0,304,48,7.0,10.0,4.0,13.0,2.0,26.0,2.0,26.0,47.0,54.0,45.0,47.0,37.0,8.0,0.0999071340168046,0.6241654309435934
385,2cf66fb7-ab1d-466b-be40-d9f856dc213f,wander,180,54.0,2.468,1,304,49,7.0,10.0,4.0,13.0,2.0,26.0,2.0,26.0,47.0,54.0,45.0,47.0,37.0,8.0,0.0999071340168046,0.6241654309435934
386,c4c5c990-2898-4b30-8454-9be48985cf75,chase,150,16.0,1.818,1,304,50,7.0,10.0,4.0,13.0,2.0,26.0,2.0,26.0,47.0,54.0,45.0,47.0,37.0,8.0,0.0999071340168046,0.6241654309435934
387,93865245-a3be-41b2-a17e-29b2b6043800,chase,90,68.0,2.048,1,304,51,7.0,10.0,4.0,13.0,2.0,26.0,2.0,26.0,47.0,54.0,45.0,47.0,37.0,8.0,0.0999071340168046,0.6241654309435934
388,2d4bdbd9-d1de-4787-8cc8-a317b9d4c68d,wander,180,6.0,1.757,1,304,52,7.0,10.0,4.0,13.0,2.0,26.0,2.0,26.0,47.0,54.0,45.0,47.0,37.0,8.0,0.0999071340168046,0.6241654309435934
389,9d561139-a905-406b-83a0-38ea62293ed9,chase,90,67.0,1.879,1,304,53,7.0,10.0,4.0,13.0,2.0,26.0,2.0,26.0,47.0,54.0,45.0,47.0,37.0,8.0,0.0999071340168046,0.6241654309435934
390,68be0cf8-ea92-4566-b84a-cbd60b2e5547,wander,180,23.0,3.218,0,304,54,7.0,10.0,4.0,13.0,2.0,26.0,2.0,26.0,47.0,54.0,45.0,47.0,37.0,8.0,0.0999071340168046,0.6241654309435934
391,c798455f-e351-48ee-b7cd-d27d6bb7ad61,chase,60,83.0,1.985,1,304,55,7.0,10.0,4.0,13.0,2.0,26.0,2.0,26.0,47.0,54.0,45.0,47.0,37.0,8.0,0.0999071340168046,0.6241654309435934
392,c1b6f573-136b-414a-a6ec-8628f66a51e1,chase,150,4.0,2.816,0,304,56,7.0,10.0,4.0,13.0,2.0,26.0,2.0,26.0,47.0,54.0,45.0,47.0,37.0,8.0,0.0999071340168046,0.6241654309435934
393,b75e278a-0fbd-474b-92b0-7038934dda4b,chase,30,88.0,2.568,1,304,57,7.0,10.0,4.0,13.0,2.0,26.0,2.0,26.0,47.0,54.0,45.0,47.0,37.0,8.0,0.0999071340168046,0.6241654309435934
394,f1ea4cb7-98d0-45a4-8269-16f1aebf05e3,chase,30,79.0,2.106,1,304,58,7.0,10.0,4.0,13.0,2.0,26.0,2.0,26.0,47.0,54.0,45.0,47.0,37.0,8.0,0.0999071340168046,0.6241654309435934
395,7f76ce9f-1463-4e78-87a4-6a54cd80ee88,chase,90,58.0,2.218,1,304,59,7.0,10.0,4.0,13.0,2.0,26.0,2.0,26.0,47.0,54.0,45.0,47.0,37.0,8.0,0.0999071340168046,0.6241654309435934
396,7ef8daac-db75-4ee8-a071-f88ace7368fa,chase,60,79.0,1.847,1,304,60,7.0,10.0,4.0,13.0,2.0,26.0,2.0,26.0,47.0,54.0,45.0,47.0,37.0,8.0,0.0999071340168046,0.6241654309435934
397,cd35aaa0-2e49-4c68-9db3-f26fb9be29c5,chase,0,85.0,1.98,1,304,61,7.0,10.0,4.0,13.0,2.0,26.0,2.0,26.0,47.0,54.0,45.0,47.0,37.0,8.0,0.0999071340168046,0.6241654309435934
398,bc18f2bb-8e1a-4fcf-bc63-d56da485f828,chase,90,79.0,2.363,1,304,62,7.0,10.0,4.0,13.0,2.0,26.0,2.0,26.0,47.0,54.0,45.0,47.0,37.0,8.0,0.0999071340168046,0.6241654309435934
399,cf6ad30a-98ab-45d8-98d9-92352096afee,chase,30,89.0,2.087,1,304,63,7.0,10.0,4.0,13.0,2.0,26.0,2.0,26.0,47.0,54.0,45.0,47.0,37.0,8.0,0.0999071340168046,0.6241654309435934
400,65c87d60-ca32-4b8c-862c-41cd8e585b4b,chase,0,73.0,2.119,1,304,64,7.0,10.0,4.0,13.0,2.0,26.0,2.0,26.0,47.0,54.0,45.0,47.0,37.0,8.0,0.0999071340168046,0.6241654309435934
401,c5cf3c4d-84e7-4c90-a33b-9d7db4b01300,chase,0,82.0,1.997,1,304,65,7.0,10.0,4.0,13.0,2.0,26.0,2.0,26.0,47.0,54.0,45.0,47.0,37.0,8.0,0.0999071340168046,0.6241654309435934
402,45126725-a7eb-4318-86c4-1af84082e8b8,chase,30,71.0,1.582,1,304,66,7.0,10.0,4.0,13.0,2.0,26.0,2.0,26.0,47.0,54.0,45.0,47.0,37.0,8.0,0.0999071340168046,0.6241654309435934
403,67a027b6-67e1-4784-aaad-ab48b5731cca,chase,0,81.0,2.509,1,304,67,7.0,10.0,4.0,13.0,2.0,26.0,2.0,26.0,47.0,54.0,45.0,47.0,37.0,8.0,0.0999071340168046,0.6241654309435934
404,86edbcec-0b0a-41d9-9c9e-d5df43732237,chase,30,82.0,1.807,1,304,68,7.0,10.0,4.0,13.0,2.0,26.0,2.0,26.0,47.0,54.0,45.0,47.0,37.0,8.0,0.0999071340168046,0.6241654309435934
405,dbce0a8f-ba45-4265-a60e-b98acd0e16d0,chase,150,38.0,1.836,1,304,69,7.0,10.0,4.0,13.0,2.0,26.0,2.0,26.0,47.0,54.0,45.0,47.0,37.0,8.0,0.0999071340168046,0.6241654309435934
406,5dbc75c6-6973-4ae1-aaf0-d3b84feb4723,wander,180,1.0,2.513,1,304,70,7.0,10.0,4.0,13.0,2.0,26.0,2.0,26.0,47.0,54.0,45.0,47.0,37.0,8.0,0.0999071340168046,0.6241654309435934
407,64e6dcf6-35e5-46ef-8d1c-80a6786a24f6,chase,90,71.0,1.905,1,304,71,7.0,10.0,4.0,13.0,2.0,26.0,2.0,26.0,47.0,54.0,45.0,47.0,37.0,8.0,0.0999071340168046,0.6241654309435934
408,5ce017a9-f595-403c-a861-53e49993751a,wander,180,47.0,3.254,1,304,72,7.0,10.0,4.0,13.0,2.0,26.0,2.0,26.0,47.0,54.0,45.0,47.0,37.0,8.0,0.0999071340168046,0.6241654309435934
409,1a3da098-0a3a-43af-af4a-a9fad5adcce6,chase,90,76.0,2.027,1,304,73,7.0,10.0,4.0,13.0,2.0,26.0,2.0,26.0,47.0,54.0,45.0,47.0,37.0,8.0,0.0999071340168046,0.6241654309435934
410,b3b1ce6f-50f4-4922-80d2-b53f06819db2,chase,120,78.0,1.838,1,304,74,7.0,10.0,4.0,13.0,2.0,26.0,2.0,26.0,47.0,54.0,45.0,47.0,37.0,8.0,0.0999071340168046,0.6241654309435934
411,c51864d5-4cd9-435e-8d8b-210c8454248a,chase,0,75.0,1.931,1,304,75,7.0,10.0,4.0,13.0,2.0,26.0,2.0,26.0,47.0,54.0,45.0,47.0,37.0,8.0,0.0999071340168046,0.6241654309435934
412,f4c4b671-d1de-4b8d-adad-ab6e05900d81,chase,90,77.0,1.875,1,304,76,7.0,10.0,4.0,13.0,2.0,26.0,2.0,26.0,47.0,54.0,45.0,47.0,37.0,8.0,0.0999071340168046,0.6241654309435934
413,21ca5095-0a92-499b-9d26-d8a5f4a0841a,wander,180,12.0,1.984,1,304,77,7.0,10.0,4.0,13.0,2.0,26.0,2.0,26.0,47.0,54.0,45.0,47.0,37.0,8.0,0.0999071340168046,0.6241654309435934
414,f9e978d5-51e5-401a-8c9a-df747f2dec53,chase,0,93.0,1.877,1,304,78,7.0,10.0,4.0,13.0,2.0,26.0,2.0,26.0,47.0,54.0,45.0,47.0,37.0,8.0,0.0999071340168046,0.6241654309435934
415,738dba2c-d7cb-488e-b971-0dc50c74bf4b,chase,30,88.0,1.679,1,304,79,7.0,10.0,4.0,13.0,2.0,26.0,2.0,26.0,47.0,54.0,45.0,47.0,37.0,8.0,0.0999071340168046,0.6241654309435934
416,6164475a-8bff-4ee0-8fef-043a34cd7da5,chase,120,53.0,3.34,1,304,80,7.0,10.0,4.0,13.0,2.0,26.0,2.0,26.0,47.0,54.0,45.0,47.0,37.0,8.0,0.0999071340168046,0.6241654309435934
417,4b3782e4-fafc-4dd1-96aa-9b339f19d004,chase,0,82.0,2.023,1,304,81,7.0,10.0,4.0,13.0,2.0,26.0,2.0,26.0,47.0,54.0,45.0,47.0,37.0,8.0,0.0999071340168046,0.6241654309435934
418,977e0607-6332-4db4-ab12-9d17dce4dc85,wander,180,53.0,3.361,1,304,82,7.0,10.0,4.0,13.0,2.0,26.0,2.0,26.0,47.0,54.0,45.0,47.0,37.0,8.0,0.0999071340168046,0.6241654309435934
419,0ea38b84-b2dc-4072-b4b8-3dce5f53debc,chase,120,54.0,2.371,1,304,83,7.0,10.0,4.0,13.0,2.0,26.0,2.0,26.0,47.0,54.0,45.0,47.0,37.0,8.0,0.0999071340168046,0.6241654309435934
420,184c8795-2f00-4c7d-bc10-bd7de3066a20,chase,60,100.0,2.833,1,123,0,15.0,22.0,9.0,25.0,13.0,9.0,13.0,45.0,30.0,31.0,42.0,43.0,42.0,2.0,0.099724658977091,0.882896831272276
421,24724e9a-8a79-4ab8-a58f-e007c5d00714,chase,120,65.0,2.659,1,123,1,15.0,22.0,9.0,25.0,13.0,9.0,13.0,45.0,30.0,31.0,42.0,43.0,42.0,2.0,0.099724658977091,0.882896831272276
422,f9e978d5-51e5-401a-8c9a-df747f2dec53,chase,0,51.0,2.292,1,123,2,15.0,22.0,9.0,25.0,13.0,9.0,13.0,45.0,30.0,31.0,42.0,43.0,42.0,2.0,0.099724658977091,0.882896831272276
423,67a027b6-67e1-4784-aaad-ab48b5731cca,chase,0,100.0,3.168,1,123,3,15.0,22.0,9.0,25.0,13.0,9.0,13.0,45.0,30.0,31.0,42.0,43.0,42.0,2.0,0.099724658977091,0.882896831272276
424,68be0cf8-ea92-4566-b84a-cbd60b2e5547,wander,180,28.0,3.806,1,123,4,15.0,22.0,9.0,25.0,13.0,9.0,13.0,45.0,30.0,31.0,42.0,43.0,42.0,2.0,0.099724658977091,0.882896831272276
425,d145a05f-e3c9-4244-b83b-2792e29b0493,chase,150,42.0,2.551,1,123,5,15.0,22.0,9.0,25.0,13.0,9.0,13.0,45.0,30.0,31.0,42.0,43.0,42.0,2.0,0.099724658977091,0.882896831272276
426,f4c4b671-d1de-4b8d-adad-ab6e05900d81,chase,90,72.0,1.886,1,123,6,15.0,22.0,9.0,25.0,13.0,9.0,13.0,45.0,30.0,31.0,42.0,43.0,42.0,2.0,0.099724658977091,0.882896831272276
427,64e6dcf6-35e5-46ef-8d1c-80a6786a24f6,chase,90,87.0,1.912,1,123,7,15.0,22.0,9.0,25.0,13.0,9.0,13.0,45.0,30.0,31.0,42.0,43.0,42.0,2.0,0.099724658977091,0.882896831272276
428,cf6ad30a-98ab-45d8-98d9-92352096afee,chase,30,100.0,1.869,1,123,8,15.0,22.0,9.0,25.0,13.0,9.0,13.0,45.0,30.0,31.0,42.0,43.0,42.0,2.0,0.099724658977091,0.882896831272276
429,7da2bf99-2525-456c-889d-33e4d57cefac,chase,150,35.0,2.175,1,123,9,15.0,22.0,9.0,25.0,13.0,9.0,13.0,45.0,30.0,31.0,42.0,43.0,42.0,2.0,0.099724658977091,0.882896831272276
430,5dbc75c6-6973-4ae1-aaf0-d3b84feb4723,wander,180,0.0,2.101,1,123,10,15.0,22.0,9.0,25.0,13.0,9.0,13.0,45.0,30.0,31.0,42.0,43.0,42.0,2.0,0.099724658977091,0.882896831272276
431,1c695094-312c-450a-ac7f-f994dabb958d,wander,180,4.0,2.259,1,123,11,15.0,22.0,9.0,25.0,13.0,9.0,13.0,45.0,30.0,31.0,42.0,43.0,42.0,2.0,0.099724658977091,0.882896831272276
432,2b3090fe-a6e0-4e32-8e43-767b0d526444,chase,60,95.0,2.562,1,123,12,15.0,22.0,9.0,25.0,13.0,9.0,13.0,45.0,30.0,31.0,42.0,43.0,42.0,2.0,0.099724658977091,0.882896831272276
433,5ce017a9-f595-403c-a861-53e49993751a,wander,180,31.0,1.804,1,123,13,15.0,22.0,9.0,25.0,13.0,9.0,13.0,45.0,30.0,31.0,42.0,43.0,42.0,2.0,0.099724658977091,0.882896831272276
434,64673dfa-0706-4fb2-a297-b988740292d5,chase,90,63.0,1.903,1,123,14,15.0,22.0,9.0,25.0,13.0,9.0,13.0,45.0,30.0,31.0,42.0,43.0,42.0,2.0,0.099724658977091,0.882896831272276
435,c4c5c990-2898-4b30-8454-9be48985cf75,chase,150,27.0,2.926,1,123,15,15.0,22.0,9.0,25.0,13.0,9.0,13.0,45.0,30.0,31.0,42.0,43.0,42.0,2.0,0.099724658977091,0.882896831272276
436,93865245-a3be-41b2-a17e-29b2b6043800,chase,90,90.0,1.922,1,123,16,15.0,22.0,9.0,25.0,13.0,9.0,13.0,45.0,30.0,31.0,42.0,43.0,42.0,2.0,0.099724658977091,0.882896831272276
437,4e913eda-699f-4aa1-831d-c82fb169914c,chase,60,94.0,2.277,1,123,17,15.0,22.0,9.0,25.0,13.0,9.0,13.0,45.0,30.0,31.0,42.0,43.0,42.0,2.0,0.099724658977091,0.882896831272276
438,c798455f-e351-48ee-b7cd-d27d6bb7ad61,chase,60,97.0,2.0,1,123,18,15.0,22.0,9.0,25.0,13.0,9.0,13.0,45.0,30.0,31.0,42.0,43.0,42.0,2.0,0.099724658977091,0.882896831272276
439,4fb58057-109b-400f-8b1d-d9afc6926a6c,chase,60,87.0,1.679,1,123,19,15.0,22.0,9.0,25.0,13.0,9.0,13.0,45.0,30.0,31.0,42.0,43.0,42.0,2.0,0.099724658977091,0.882896831272276
440,ae7d3eb8-dc5d-447b-b5c5-9b30fb3b8314,chase,60,92.0,2.097,1,123,20,15.0,22.0,9.0,25.0,13.0,9.0,13.0,45.0,30.0,31.0,42.0,43.0,42.0,2.0,0.099724658977091,0.882896831272276
441,f1ea4cb7-98d0-45a4-8269-16f1aebf05e3,chase,30,99.0,1.872,1,123,21,15.0,22.0,9.0,25.0,13.0,9.0,13.0,45.0,30.0,31.0,42.0,43.0,42.0,2.0,0.099724658977091,0.882896831272276
442,21ca5095-0a92-499b-9d26-d8a5f4a0841a,wander,180,26.0,4.609,0,123,22,15.0,22.0,9.0,25.0,13.0,9.0,13.0,45.0,30.0,31.0,42.0,43.0,42.0,2.0,0.099724658977091,0.882896831272276
443,81f068e9-cbbc-4d88-8e31-206979547986,chase,120,63.0,1.876,1,123,23,15.0,22.0,9.0,25.0,13.0,9.0,13.0,45.0,30.0,31.0,42.0,43.0,42.0,2.0,0.099724658977091,0.882896831272276
444,65c87d60-ca32-4b8c-862c-41cd8e585b4b,chase,0,100.0,3.391,1,123,24,15.0,22.0,9.0,25.0,13.0,9.0,13.0,45.0,30.0,31.0,42.0,43.0,42.0,2.0,0.099724658977091,0.882896831272276
445,8af66fd7-6ab4-47a3-a88c-02fd34772ac6,wander,180,0.0,1.881,1,123,25,15.0,22.0,9.0,25.0,13.0,9.0,13.0,45.0,30.0,31.0,42.0,43.0,42.0,2.0,0.099724658977091,0.882896831272276
446,cd35aaa0-2e49-4c68-9db3-f26fb9be29c5,chase,0,100.0,1.726,1,123,26,15.0,22.0,9.0,25.0,13.0,9.0,13.0,45.0,30.0,31.0,42.0,43.0,42.0,2.0,0.099724658977091,0.882896831272276
447,4fb304a5-e4d9-4469-a34d-360a50cb0d09,chase,60,93.0,1.852,1,123,27,15.0,22.0,9.0,25.0,13.0,9.0,13.0,45.0,30.0,31.0,42.0,43.0,42.0,2.0,0.099724658977091,0.882896831272276
448,9d561139-a905-406b-83a0-38ea62293ed9,chase,90,63.0,1.967,1,123,28,15.0,22.0,9.0,25.0,13.0,9.0,13.0,45.0,30.0,31.0,42.0,43.0,42.0,2.0,0.099724658977091,0.882896831272276
449,58ff2cb6-e661-4be4-945c-d3f9ab5180c6,chase,150,37.0,2.41,1,123,29,15.0,22.0,9.0,25.0,13.0,9.0,13.0,45.0,30.0,31.0,42.0,43.0,42.0,2.0,0.099724658977091,0.882896831272276
450,cd9d4d31-b57e-4c3d-86c6-267ce9eec948,chase,60,100.0,2.06,1,123,30,15.0,22.0,9.0,25.0,13.0,9.0,13.0,45.0,30.0,31.0,42.0,43.0,42.0,2.0,0.099724658977091,0.882896831272276
451,bc18f2bb-8e1a-4fcf-bc63-d56da485f828,chase,90,60.0,1.957,1,123,31,15.0,22.0,9.0,25.0,13.0,9.0,13.0,45.0,30.0,31.0,42.0,43.0,42.0,2.0,0.099724658977091,0.882896831272276
452,b70d0259-cb69-48f1-b026-46452cf6e70f,wander,180,30.0,2.041,0,123,32,15.0,22.0,9.0,25.0,13.0,9.0,13.0,45.0,30.0,31.0,42.0,43.0,42.0,2.0,0.099724658977091,0.882896831272276
453,7d329546-ecf4-4612-8f00-c127c77d5d6c,chase,60,100.0,1.525,1,123,33,15.0,22.0,9.0,25.0,13.0,9.0,13.0,45.0,30.0,31.0,42.0,43.0,42.0,2.0,0.099724658977091,0.882896831272276
454,46975d67-ead1-4d29-93d2-9fbd40dad49d,wander,180,0.0,2.738,0,123,34,15.0,22.0,9.0,25.0,13.0,9.0,13.0,45.0,30.0,31.0,42.0,43.0,42.0,2.0,0.099724658977091,0.882896831272276
455,2437aa32-b54d-48e7-b20d-fafb63156eb0,chase,0,100.0,1.678,1,123,35,15.0,22.0,9.0,25.0,13.0,9.0,13.0,45.0,30.0,31.0,42.0,43.0,42.0,2.0,0.099724658977091,0.882896831272276
456,e5de8a7b-b080-44aa-9279-c42f7862e210,chase,0,100.0,1.627,1,123,36,15.0,22.0,9.0,25.0,13.0,9.0,13.0,45.0,30.0,31.0,42.0,43.0,42.0,2.0,0.099724658977091,0.882896831272276
457,1d35e834-4947-46b2-9cbd-816ea4587c6f,wander,180,0.0,1.998,1,123,37,15.0,22.0,9.0,25.0,13.0,9.0,13.0,45.0,30.0,31.0,42.0,43.0,42.0,2.0,0.099724658977091,0.882896831272276
458,a763322d-d8ef-4998-b3d2-05767e0273f2,chase,150,0.0,1.793,1,123,38,15.0,22.0,9.0,25.0,13.0,9.0,13.0,45.0,30.0,31.0,42.0,43.0,42.0,2.0,0.099724658977091,0.882896831272276
459,599df54c-434d-46db-a56a-5698a4ae9a9e,chase,150,1.0,1.849,1,123,39,15.0,22.0,9.0,25.0,13.0,9.0,13.0,45.0,30.0,31.0,42.0,43.0,42.0,2.0,0.099724658977091,0.882896831272276
460,bee25e5c-74fd-4f63-b2e7-43b8af6bb08c,chase,90,100.0,1.847,1,123,40,15.0,22.0,9.0,25.0,13.0,9.0,13.0,45.0,30.0,31.0,42.0,43.0,42.0,2.0,0.099724658977091,0.882896831272276
461,ebb2b54b-03ef-482e-98e6-c30b11e93f54,chase,90,100.0,2.285,1,123,41,15.0,22.0,9.0,25.0,13.0,9.0,13.0,45.0,30.0,31.0,42.0,43.0,42.0,2.0,0.099724658977091,0.882896831272276
462,738dba2c-d7cb-488e-b971-0dc50c74bf4b,chase,30,100.0,1.785,1,123,42,15.0,22.0,9.0,25.0,13.0,9.0,13.0,45.0,30.0,31.0,42.0,43.0,42.0,2.0,0.099724658977091,0.882896831272276
463,c8a1258a-1920-42bf-98e8-6c2dcc03a258,chase,60,100.0,1.553,1,123,43,15.0,22.0,9.0,25.0,13.0,9.0,13.0,45.0,30.0,31.0,42.0,43.0,42.0,2.0,0.099724658977091,0.882896831272276
464,c51864d5-4cd9-435e-8d8b-210c8454248a,chase,0,100.0,2.223,1,123,44,15.0,22.0,9.0,25.0,13.0,9.0,13.0,45.0,30.0,31.0,42.0,43.0,42.0,2.0,0.099724658977091,0.882896831272276
465,6164475a-8bff-4ee0-8fef-043a34cd7da5,chase,120,7.0,1.596,1,123,45,15.0,22.0,9.0,25.0,13.0,9.0,13.0,45.0,30.0,31.0,42.0,43.0,42.0,2.0,0.099724658977091,0.882896831272276
466,84e883bc-3ec7-4bef-bdb3-2016001d7f47,chase,120,11.0,1.644,1,123,46,15.0,22.0,9.0,25.0,13.0,9.0,13.0,45.0,30.0,31.0,42.0,43.0,42.0,2.0,0.099724658977091,0.882896831272276
467,7f76ce9f-1463-4e78-87a4-6a54cd80ee88,chase,90,81.0,1.599,1,123,47,15.0,22.0,9.0,25.0,13.0,9.0,13.0,45.0,30.0,31.0,42.0,43.0,42.0,2.0,0.099724658977091,0.882896831272276
468,92158ea9-b156-4e87-a2e3-ff0845033b9c,chase,150,0.0,1.809,1,123,48,15.0,22.0,9.0,25.0,13.0,9.0,13.0,45.0,30.0,31.0,42.0,43.0,42.0,2.0,0.099724658977091,0.882896831272276
469,496c052f-24cd-4731-b1a3-dc6a8076719b,chase,120,5.0,1.826,0,123,49,15.0,22.0,9.0,25.0,13.0,9.0,13.0,45.0,30.0,31.0,42.0,43.0,42.0,2.0,0.099724658977091,0.882896831272276
470,dad72227-6303-403d-8c8f-61b79d192ff4,chase,120,8.0,1.44,1,123,50,15.0,22.0,9.0,25.0,13.0,9.0,13.0,45.0,30.0,31.0,42.0,43.0,42.0,2.0,0.099724658977091,0.882896831272276
471,c5cf3c4d-84e7-4c90-a33b-9d7db4b01300,chase,0,100.0,1.521,1,123,51,15.0,22.0,9.0,25.0,13.0,9.0,13.0,45.0,30.0,31.0,42.0,43.0,42.0,2.0,0.099724658977091,0.882896831272276
472,884bc951-67a6-42bd-8ea7-ece0c8745d3f,chase,0,99.0,1.627,1,123,52,15.0,22.0,9.0,25.0,13.0,9.0,13.0,45.0,30.0,31.0,42.0,43.0,42.0,2.0,0.099724658977091,0.882896831272276
473,116d4cf9-2d22-4e06-8fbf-248789f8212c,chase,150,1.0,2.111,1,123,53,15.0,22.0,9.0,25.0,13.0,9.0,13.0,45.0,30.0,31.0,42.0,43.0,42.0,2.0,0.099724658977091,0.882896831272276
474,b3b1ce6f-50f4-4922-80d2-b53f06819db2,chase,120,56.0,1.926,1,123,54,15.0,22.0,9.0,25.0,13.0,9.0,13.0,45.0,30.0,31.0,42.0,43.0,42.0,2.0,0.099724658977091,0.882896831272276
475,7ef8daac-db75-4ee8-a071-f88ace7368fa,chase,60,100.0,3.169,1,123,55,15.0,22.0,9.0,25.0,13.0,9.0,13.0,45.0,30.0,31.0,42.0,43.0,42.0,2.0,0.099724658977091,0.882896831272276
476,411043c2-72c5-48c5-8cb7-febcebc40f98,chase,30,100.0,1.639,1,123,56,15.0,22.0,9.0,25.0,13.0,9.0,13.0,45.0,30.0,31.0,42.0,43.0,42.0,2.0,0.099724658977091,0.882896831272276
477,398e7f33-6d63-47e3-9a9a-74e474cd8a1d,chase,30,100.0,1.47,1,123,57,15.0,22.0,9.0,25.0,13.0,9.0,13.0,45.0,30.0,31.0,42.0,43.0,42.0,2.0,0.099724658977091,0.882896831272276
478,0ea38b84-b2dc-4072-b4b8-3dce5f53debc,chase,120,97.0,1.531,1,123,58,15.0,22.0,9.0,25.0,13.0,9.0,13.0,45.0,30.0,31.0,42.0,43.0,42.0,2.0,0.099724658977091,0.882896831272276
479,e4dd3e31-b4f2-4f66-9e70-0665b6bcd089,chase,30,100.0,1.709,1,123,59,15.0,22.0,9.0,25.0,13.0,9.0,13.0,45.0,30.0,31.0,42.0,43.0,42.0,2.0,0.099724658977091,0.882896831272276
480,c1b6f573-136b-414a-a6ec-8628f66a51e1,chase,150,0.0,2.127,1,123,60,15.0,22.0,9.0,25.0,13.0,9.0,13.0,45.0,30.0,31.0,42.0,43.0,42.0,2.0,0.099724658977091,0.882896831272276
481,42d1593c-1903-4c06-8304-6d2b29c5be37,chase,30,100.0,1.701,1,123,61,15.0,22.0,9.0,25.0,13.0,9.0,13.0,45.0,30.0,31.0,42.0,43.0,42.0,2.0,0.099724658977091,0.882896831272276
482,981221b7-2aa0-476c-b101-390d6cc3dd1a,chase,120,56.0,1.919,1,123,62,15.0,22.0,9.0,25.0,13.0,9.0,13.0,45.0,30.0,31.0,42.0,43.0,42.0,2.0,0.099724658977091,0.882896831272276
483,6d712780-43b4-49f9-9bb8-c6ef920b78bd,chase,0,100.0,1.611,1,123,63,15.0,22.0,9.0,25.0,13.0,9.0,13.0,45.0,30.0,31.0,42.0,43.0,42.0,2.0,0.099724658977091,0.882896831272276
484,0ea90462-f5e2-47a7-bd4b-2ea1c0bb7293,chase,60,97.0,1.763,1,123,64,15.0,22.0,9.0,25.0,13.0,9.0,13.0,45.0,30.0,31.0,42.0,43.0,42.0,2.0,0.099724658977091,0.882896831272276
485,2667cf6b-8ba8-4919-a871-ecd9b2852bce,chase,120,40.0,2.052,1,123,65,15.0,22.0,9.0,25.0,13.0,9.0,13.0,45.0,30.0,31.0,42.0,43.0,42.0,2.0,0.099724658977091,0.882896831272276
486,12ba80f8-98cb-4c76-836d-72c2d6364a8e,chase,120,40.0,1.601,1,123,66,15.0,22.0,9.0,25.0,13.0,9.0,13.0,45.0,30.0,31.0,42.0,43.0,42.0,2.0,0.099724658977091,0.882896831272276
487,45126725-a7eb-4318-86c4-1af84082e8b8,chase,30,100.0,1.785,1,123,67,15.0,22.0,9.0,25.0,13.0,9.0,13.0,45.0,30.0,31.0,42.0,43.0,42.0,2.0,0.099724658977091,0.882896831272276
488,2383c97c-89dc-495f-8ec8-8a517a45ca6c,chase,90,59.0,1.941,1,123,68,15.0,22.0,9.0,25.0,13.0,9.0,13.0,45.0,30.0,31.0,42.0,43.0,42.0,2.0,0.099724658977091,0.882896831272276
489,c40a4196-baf2-4992-afe5-aeca6b69a170,chase,30,94.0,1.623,1,123,69,15.0,22.0,9.0,25.0,13.0,9.0,13.0,45.0,30.0,31.0,42.0,43.0,42.0,2.0,0.099724658977091,0.882896831272276
490,dbce0a8f-ba45-4265-a60e-b98acd0e16d0,chase,150,13.0,2.387,0,123,70,15.0,22.0,9.0,25.0,13.0,9.0,13.0,45.0,30.0,31.0,42.0,43.0,42.0,2.0,0.099724658977091,0.882896831272276
491,b75e278a-0fbd-474b-92b0-7038934dda4b,chase,30,100.0,1.977,1,123,71,15.0,22.0,9.0,25.0,13.0,9.0,13.0,45.0,30.0,31.0,42.0,43.0,42.0,2.0,0.099724658977091,0.882896831272276
492,1a3da098-0a3a-43af-af4a-a9fad5adcce6,chase,90,94.0,1.807,1,123,72,15.0,22.0,9.0,25.0,13.0,9.0,13.0,45.0,30.0,31.0,42.0,43.0,42.0,2.0,0.099724658977091,0.882896831272276
493,f8c01499-8009-448b-9476-a38a582d3db6,chase,150,10.0,2.504,1,123,73,15.0,22.0,9.0,25.0,13.0,9.0,13.0,45.0,30.0,31.0,42.0,43.0,42.0,2.0,0.099724658977091,0.882896831272276
494,068dfd59-6b9c-4eca-b60c-7eb73cc72305,chase,0,99.0,2.215,1,123,74,15.0,22.0,9.0,25.0,13.0,9.0,13.0,45.0,30.0,31.0,42.0,43.0,42.0,2.0,0.099724658977091,0.882896831272276
495,18c4991b-f4d6-47a6-b29a-81f425410c0e,chase,120,3.0,1.511,0,123,75,15.0,22.0,9.0,25.0,13.0,9.0,13.0,45.0,30.0,31.0,42.0,43.0,42.0,2.0,0.099724658977091,0.882896831272276
496,3dbf8de7-1bf7-4a43-a5e3-4366a94ea690,chase,90,97.0,1.574,1,123,76,15.0,22.0,9.0,25.0,13.0,9.0,13.0,45.0,30.0,31.0,42.0,43.0,42.0,2.0,0.099724658977091,0.882896831272276
497,a680f7c6-9605-4481-a14d-c24d8d7b99bc,chase,30,98.0,1.513,1,123,77,15.0,22.0,9.0,25.0,13.0,9.0,13.0,45.0,30.0,31.0,42.0,43.0,42.0,2.0,0.099724658977091,0.882896831272276
498,86edbcec-0b0a-41d9-9c9e-d5df43732237,chase,30,99.0,1.741,1,123,78,15.0,22.0,9.0,25.0,13.0,9.0,13.0,45.0,30.0,31.0,42.0,43.0,42.0,2.0,0.099724658977091,0.882896831272276
499,4f1db8f7-63a7-4e49-b31b-12adcf107bf0,chase,150,0.0,6.612,1,123,79,15.0,22.0,9.0,25.0,13.0,9.0,13.0,45.0,30.0,31.0,42.0,43.0,42.0,2.0,0.099724658977091,0.882896831272276
500,2d4bdbd9-d1de-4787-8cc8-a317b9d4c68d,wander,180,1.0,9.235,1,123,80,15.0,22.0,9.0,25.0,13.0,9.0,13.0,45.0,30.0,31.0,42.0,43.0,42.0,2.0,0.099724658977091,0.882896831272276
501,4b3782e4-fafc-4dd1-96aa-9b339f19d004,chase,0,94.0,1.624,1,123,81,15.0,22.0,9.0,25.0,13.0,9.0,13.0,45.0,30.0,31.0,42.0,43.0,42.0,2.0,0.099724658977091,0.882896831272276
502,2cf66fb7-ab1d-466b-be40-d9f856dc213f,wander,180,2.0,2.008,0,123,82,15.0,22.0,9.0,25.0,13.0,9.0,13.0,45.0,30.0,31.0,42.0,43.0,42.0,2.0,0.099724658977091,0.882896831272276
503,977e0607-6332-4db4-ab12-9d17dce4dc85,wander,180,2.0,1.653,0,123,83,15.0,22.0,9.0,25.0,13.0,9.0,13.0,45.0,30.0,31.0,42.0,43.0,42.0,2.0,0.099724658977091,0.882896831272276
504,0ea38b84-b2dc-4072-b4b8-3dce5f53debc,chase,120,56.0,3.516,1,253,0,9.0,16.0,11.0,22.0,11.0,25.0,4.0,38.0,44.0,45.0,45.0,51.0,46.0,9.0,0.2625433112916268,0.537211306037389
505,5ce017a9-f595-403c-a861-53e49993751a,wander,180,30.0,9.647,1,253,1,9.0,16.0,11.0,22.0,11.0,25.0,4.0,38.0,44.0,45.0,45.0,51.0,46.0,9.0,0.2625433112916268,0.537211306037389
506,bee25e5c-74fd-4f63-b2e7-43b8af6bb08c,chase,90,79.0,2.904,1,253,2,9.0,16.0,11.0,22.0,11.0,25.0,4.0,38.0,44.0,45.0,45.0,51.0,46.0,9.0,0.2625433112916268,0.537211306037389
507,5dbc75c6-6973-4ae1-aaf0-d3b84feb4723,wander,180,32.0,4.502,1,253,3,9.0,16.0,11.0,22.0,11.0,25.0,4.0,38.0,44.0,45.0,45.0,51.0,46.0,9.0,0.2625433112916268,0.537211306037389
508,b70d0259-cb69-48f1-b026-46452cf6e70f,wander,180,82.0,4.348,0,253,4,9.0,16.0,11.0,22.0,11.0,25.0,4.0,38.0,44.0,45.0,45.0,51.0,46.0,9.0,0.2625433112916268,0.537211306037389
509,981221b7-2aa0-476c-b101-390d6cc3dd1a,chase,120,53.0,3.83,1,253,5,9.0,16.0,11.0,22.0,11.0,25.0,4.0,38.0,44.0,45.0,45.0,51.0,46.0,9.0,0.2625433112916268,0.537211306037389
510,4b3782e4-fafc-4dd1-96aa-9b339f19d004,chase,0,91.0,5.072,1,253,6,9.0,16.0,11.0,22.0,11.0,25.0,4.0,38.0,44.0,45.0,45.0,51.0,46.0,9.0,0.2625433112916268,0.537211306037389
511,cf6ad30a-98ab-45d8-98d9-92352096afee,chase,30,92.0,7.631,1,253,7,9.0,16.0,11.0,22.0,11.0,25.0,4.0,38.0,44.0,45.0,45.0,51.0,46.0,9.0,0.2625433112916268,0.537211306037389
512,9d561139-a905-406b-83a0-38ea62293ed9,chase,90,69.0,2.82,1,253,8,9.0,16.0,11.0,22.0,11.0,25.0,4.0,38.0,44.0,45.0,45.0,51.0,46.0,9.0,0.2625433112916268,0.537211306037389
513,42d1593c-1903-4c06-8304-6d2b29c5be37,chase,30,86.0,4.005,1,253,9,9.0,16.0,11.0,22.0,11.0,25.0,4.0,38.0,44.0,45.0,45.0,51.0,46.0,9.0,0.2625433112916268,0.537211306037389
514,c798455f-e351-48ee-b7cd-d27d6bb7ad61,chase,60,84.0,2.921,1,253,10,9.0,16.0,11.0,22.0,11.0,25.0,4.0,38.0,44.0,45.0,45.0,51.0,46.0,9.0,0.2625433112916268,0.537211306037389
515,599df54c-434d-46db-a56a-5698a4ae9a9e,chase,150,34.0,3.349,0,253,11,9.0,16.0,11.0,22.0,11.0,25.0,4.0,38.0,44.0,45.0,45.0,51.0,46.0,9.0,0.2625433112916268,0.537211306037389
516,84e883bc-3ec7-4bef-bdb3-2016001d7f47,chase,120,55.0,4.502,1,253,12,9.0,16.0,11.0,22.0,11.0,25.0,4.0,38.0,44.0,45.0,45.0,51.0,46.0,9.0,0.2625433112916268,0.537211306037389
517,46975d67-ead1-4d29-93d2-9fbd40dad49d,wander,180,10.0,3.845,0,253,13,9.0,16.0,11.0,22.0,11.0,25.0,4.0,38.0,44.0,45.0,45.0,51.0,46.0,9.0,0.2625433112916268,0.537211306037389
518,12ba80f8-98cb-4c76-836d-72c2d6364a8e,chase,120,60.0,3.194,1,253,14,9.0,16.0,11.0,22.0,11.0,25.0,4.0,38.0,44.0,45.0,45.0,51.0,46.0,9.0,0.2625433112916268,0.537211306037389
519,2667cf6b-8ba8-4919-a871-ecd9b2852bce,chase,120,42.0,5.62,1,253,15,9.0,16.0,11.0,22.0,11.0,25.0,4.0,38.0,44.0,45.0,45.0,51.0,46.0,9.0,0.2625433112916268,0.537211306037389
520,068dfd59-6b9c-4eca-b60c-7eb73cc72305,chase,0,72.0,4.934,1,253,16,9.0,16.0,11.0,22.0,11.0,25.0,4.0,38.0,44.0,45.0,45.0,51.0,46.0,9.0,0.2625433112916268,0.537211306037389
521,496c052f-24cd-4731-b1a3-dc6a8076719b,chase,120,55.0,3.468,1,253,17,9.0,16.0,11.0,22.0,11.0,25.0,4.0,38.0,44.0,45.0,45.0,51.0,46.0,9.0,0.2625433112916268,0.537211306037389
522,cd35aaa0-2e49-4c68-9db3-f26fb9be29c5,chase,0,91.0,5.43,1,253,18,9.0,16.0,11.0,22.0,11.0,25.0,4.0,38.0,44.0,45.0,45.0,51.0,46.0,9.0,0.2625433112916268,0.537211306037389
523,4f1db8f7-63a7-4e49-b31b-12adcf107bf0,chase,150,12.0,4.331,1,253,19,9.0,16.0,11.0,22.0,11.0,25.0,4.0,38.0,44.0,45.0,45.0,51.0,46.0,9.0,0.2625433112916268,0.537211306037389
524,738dba2c-d7cb-488e-b971-0dc50c74bf4b,chase,30,90.0,3.195,1,253,20,9.0,16.0,11.0,22.0,11.0,25.0,4.0,38.0,44.0,45.0,45.0,51.0,46.0,9.0,0.2625433112916268,0.537211306037389
525,7f76ce9f-1463-4e78-87a4-6a54cd80ee88,chase,90,68.0,6.28,1,253,21,9.0,16.0,11.0,22.0,11.0,25.0,4.0,38.0,44.0,45.0,45.0,51.0,46.0,9.0,0.2625433112916268,0.537211306037389
526,cd9d4d31-b57e-4c3d-86c6-267ce9eec948,chase,60,89.0,3.663,1,253,22,9.0,16.0,11.0,22.0,11.0,25.0,4.0,38.0,44.0,45.0,45.0,51.0,46.0,9.0,0.2625433112916268,0.537211306037389
527,ebb2b54b-03ef-482e-98e6-c30b11e93f54,chase,90,87.0,3.057,1,253,23,9.0,16.0,11.0,22.0,11.0,25.0,4.0,38.0,44.0,45.0,45.0,51.0,46.0,9.0,0.2625433112916268,0.537211306037389
528,2437aa32-b54d-48e7-b20d-fafb63156eb0,chase,0,88.0,4.097,1,253,24,9.0,16.0,11.0,22.0,11.0,25.0,4.0,38.0,44.0,45.0,45.0,51.0,46.0,9.0,0.2625433112916268,0.537211306037389
529,58ff2cb6-e661-4be4-945c-d3f9ab5180c6,chase,150,56.0,3.146,1,253,25,9.0,16.0,11.0,22.0,11.0,25.0,4.0,38.0,44.0,45.0,45.0,51.0,46.0,9.0,0.2625433112916268,0.537211306037389
530,116d4cf9-2d22-4e06-8fbf-248789f8212c,chase,150,13.0,5.763,0,253,26,9.0,16.0,11.0,22.0,11.0,25.0,4.0,38.0,44.0,45.0,45.0,51.0,46.0,9.0,0.2625433112916268,0.537211306037389
531,f9e978d5-51e5-401a-8c9a-df747f2dec53,chase,0,88.0,2.841,1,253,27,9.0,16.0,11.0,22.0,11.0,25.0,4.0,38.0,44.0,45.0,45.0,51.0,46.0,9.0,0.2625433112916268,0.537211306037389
532,2b3090fe-a6e0-4e32-8e43-767b0d526444,chase,60,91.0,2.91,1,253,28,9.0,16.0,11.0,22.0,11.0,25.0,4.0,38.0,44.0,45.0,45.0,51.0,46.0,9.0,0.2625433112916268,0.537211306037389
533,884bc951-67a6-42bd-8ea7-ece0c8745d3f,chase,0,98.0,3.141,1,253,29,9.0,16.0,11.0,22.0,11.0,25.0,4.0,38.0,44.0,45.0,45.0,51.0,46.0,9.0,0.2625433112916268,0.537211306037389
534,f8c01499-8009-448b-9476-a38a582d3db6,chase,150,53.0,5.74,1,253,30,9.0,16.0,11.0,22.0,11.0,25.0,4.0,38.0,44.0,45.0,45.0,51.0,46.0,9.0,0.2625433112916268,0.537211306037389
535,c40a4196-baf2-4992-afe5-aeca6b69a170,chase,30,89.0,3.52,1,253,31,9.0,16.0,11.0,22.0,11.0,25.0,4.0,38.0,44.0,45.0,45.0,51.0,46.0,9.0,0.2625433112916268,0.537211306037389
536,65c87d60-ca32-4b8c-862c-41cd8e585b4b,chase,0,94.0,3.557,1,253,32,9.0,16.0,11.0,22.0,11.0,25.0,4.0,38.0,44.0,45.0,45.0,51.0,46.0,9.0,0.2625433112916268,0.537211306037389
537,4e913eda-699f-4aa1-831d-c82fb169914c,chase,60,78.0,4.479,1,253,33,9.0,16.0,11.0,22.0,11.0,25.0,4.0,38.0,44.0,45.0,45.0,51.0,46.0,9.0,0.2625433112916268,0.537211306037389
538,3dbf8de7-1bf7-4a43-a5e3-4366a94ea690,chase,90,73.0,3.008,1,253,34,9.0,16.0,11.0,22.0,11.0,25.0,4.0,38.0,44.0,45.0,45.0,51.0,46.0,9.0,0.2625433112916268,0.537211306037389
539,b3b1ce6f-50f4-4922-80d2-b53f06819db2,chase,120,71.0,2.879,1,253,35,9.0,16.0,11.0,22.0,11.0,25.0,4.0,38.0,44.0,45.0,45.0,51.0,46.0,9.0,0.2625433112916268,0.537211306037389
540,2d4bdbd9-d1de-4787-8cc8-a317b9d4c68d,wander,180,38.0,4.358,1,253,36,9.0,16.0,11.0,22.0,11.0,25.0,4.0,38.0,44.0,45.0,45.0,51.0,46.0,9.0,0.2625433112916268,0.537211306037389
541,64e6dcf6-35e5-46ef-8d1c-80a6786a24f6,chase,90,77.0,2.897,1,253,37,9.0,16.0,11.0,22.0,11.0,25.0,4.0,38.0,44.0,45.0,45.0,51.0,46.0,9.0,0.2625433112916268,0.537211306037389
542,7d329546-ecf4-4612-8f00-c127c77d5d6c,chase,60,92.0,3.56,1,253,38,9.0,16.0,11.0,22.0,11.0,25.0,4.0,38.0,44.0,45.0,45.0,51.0,46.0,9.0,0.2625433112916268,0.537211306037389
543,18c4991b-f4d6-47a6-b29a-81f425410c0e,chase,120,56.0,6.439,0,253,39,9.0,16.0,11.0,22.0,11.0,25.0,4.0,38.0,44.0,45.0,45.0,51.0,46.0,9.0,0.2625433112916268,0.537211306037389
544,977e0607-6332-4db4-ab12-9d17dce4dc85,wander,180,42.0,3.211,1,253,40,9.0,16.0,11.0,22.0,11.0,25.0,4.0,38.0,44.0,45.0,45.0,51.0,46.0,9.0,0.2625433112916268,0.537211306037389
545,64673dfa-0706-4fb2-a297-b988740292d5,chase,90,71.0,2.813,1,253,41,9.0,16.0,11.0,22.0,11.0,25.0,4.0,38.0,44.0,45.0,45.0,51.0,46.0,9.0,0.2625433112916268,0.537211306037389
546,68be0cf8-ea92-4566-b84a-cbd60b2e5547,wander,180,60.0,2.502,0,253,42,9.0,16.0,11.0,22.0,11.0,25.0,4.0,38.0,44.0,45.0,45.0,51.0,46.0,9.0,0.2625433112916268,0.537211306037389
547,f4c4b671-d1de-4b8d-adad-ab6e05900d81,chase,90,70.0,2.266,1,253,43,9.0,16.0,11.0,22.0,11.0,25.0,4.0,38.0,44.0,45.0,45.0,51.0,46.0,9.0,0.2625433112916268,0.537211306037389
548,0ea90462-f5e2-47a7-bd4b-2ea1c0bb7293,chase,60,74.0,3.627,1,253,44,9.0,16.0,11.0,22.0,11.0,25.0,4.0,38.0,44.0,45.0,45.0,51.0,46.0,9.0,0.2625433112916268,0.537211306037389
549,dbce0a8f-ba45-4265-a60e-b98acd0e16d0,chase,150,53.0,4.989,1,253,45,9.0,16.0,11.0,22.0,11.0,25.0,4.0,38.0,44.0,45.0,45.0,51.0,46.0,9.0,0.2625433112916268,0.537211306037389
550,4fb58057-109b-400f-8b1d-d9afc6926a6c,chase,60,91.0,2.741,1,253,46,9.0,16.0,11.0,22.0,11.0,25.0,4.0,38.0,44.0,45.0,45.0,51.0,46.0,9.0,0.2625433112916268,0.537211306037389
551,8af66fd7-6ab4-47a3-a88c-02fd34772ac6,wander,180,37.0,4.109,1,253,47,9.0,16.0,11.0,22.0,11.0,25.0,4.0,38.0,44.0,45.0,45.0,51.0,46.0,9.0,0.2625433112916268,0.537211306037389
552,7ef8daac-db75-4ee8-a071-f88ace7368fa,chase,60,91.0,2.908,1,253,48,9.0,16.0,11.0,22.0,11.0,25.0,4.0,38.0,44.0,45.0,45.0,51.0,46.0,9.0,0.2625433112916268,0.537211306037389
553,1d35e834-4947-46b2-9cbd-816ea4587c6f,wander,180,32.0,3.351,1,253,49,9.0,16.0,11.0,22.0,11.0,25.0,4.0,38.0,44.0,45.0,45.0,51.0,46.0,9.0,0.2625433112916268,0.537211306037389
554,c51864d5-4cd9-435e-8d8b-210c8454248a,chase,0,97.0,3.347,1,253,50,9.0,16.0,11.0,22.0,11.0,25.0,4.0,38.0,44.0,45.0,45.0,51.0,46.0,9.0,0.2625433112916268,0.537211306037389
555,6d712780-43b4-49f9-9bb8-c6ef920b78bd,chase,0,95.0,2.77,1,253,51,9.0,16.0,11.0,22.0,11.0,25.0,4.0,38.0,44.0,45.0,45.0,51.0,46.0,9.0,0.2625433112916268,0.537211306037389
556,21ca5095-0a92-499b-9d26-d8a5f4a0841a,wander,180,45.0,4.016,1,253,52,9.0,16.0,11.0,22.0,11.0,25.0,4.0,38.0,44.0,45.0,45.0,51.0,46.0,9.0,0.2625433112916268,0.537211306037389
557,93865245-a3be-41b2-a17e-29b2b6043800,chase,90,70.0,3.433,1,253,53,9.0,16.0,11.0,22.0,11.0,25.0,4.0,38.0,44.0,45.0,45.0,51.0,46.0,9.0,0.2625433112916268,0.537211306037389
558,24724e9a-8a79-4ab8-a58f-e007c5d00714,chase,120,55.0,3.018,1,253,54,9.0,16.0,11.0,22.0,11.0,25.0,4.0,38.0,44.0,45.0,45.0,51.0,46.0,9.0,0.2625433112916268,0.537211306037389
559,184c8795-2f00-4c7d-bc10-bd7de3066a20,chase,60,79.0,2.921,1,253,55,9.0,16.0,11.0,22.0,11.0,25.0,4.0,38.0,44.0,45.0,45.0,51.0,46.0,9.0,0.2625433112916268,0.537211306037389
