,subID,subtlety,slider,RT,accuracy,trial_ind,rating180,diff_from_180,aq_social_skill,aq_attn_switch,aq_img,aq_attn_to_det,aq_comm,panas_pos,panas_neg,ffi_neuroticism,ffi_extraversion,ffi_openness,ffi_agreeableness,ffi_conscientiousness,ucla,friend_num
0,1,0,96.25,2.8855833333333334,1.0,33.75,15.833333333333334,80.41666666666667,8.0,16.0,8.0,20.0,12.0,16.0,9.0,43.0,38.0,29.0,42.0,46.0,58.0,1.0
1,1,30,96.41666666666667,2.830083333333333,1.0,50.583333333333336,15.833333333333334,80.58333333333334,8.0,16.0,8.0,20.0,12.0,16.0,9.0,43.0,38.0,29.0,42.0,46.0,58.0,1.0
2,1,60,93.58333333333333,3.191333333333333,1.0,35.666666666666664,15.833333333333334,77.75,8.0,16.0,8.0,20.0,12.0,16.0,9.0,43.0,38.0,29.0,42.0,46.0,58.0,1.0
3,1,90,80.75,3.3995833333333336,1.0,40.916666666666664,15.833333333333334,64.91666666666667,8.0,16.0,8.0,20.0,12.0,16.0,9.0,43.0,38.0,29.0,42.0,46.0,58.0,1.0
4,1,120,53.666666666666664,3.9845,1.0,37.333333333333336,15.833333333333334,37.83333333333333,8.0,16.0,8.0,20.0,12.0,16.0,9.0,43.0,38.0,29.0,42.0,46.0,58.0,1.0
5,1,150,23.0,3.642,0.75,42.75,15.833333333333334,7.166666666666666,8.0,16.0,8.0,20.0,12.0,16.0,9.0,43.0,38.0,29.0,42.0,46.0,58.0,1.0
6,1,180,15.833333333333334,3.5444999999999998,0.4166666666666667,49.5,15.833333333333334,0.0,8.0,16.0,8.0,20.0,12.0,16.0,9.0,43.0,38.0,29.0,42.0,46.0,58.0,1.0
7,2,0,100.0,2.90625,1.0,42.833333333333336,7.083333333333333,92.91666666666667,7.0,14.0,9.0,21.0,12.0,26.0,5.0,28.0,34.0,40.0,44.0,36.0,41.0,4.0
8,2,30,98.66666666666667,3.3722499999999997,1.0,49.166666666666664,7.083333333333333,91.58333333333334,7.0,14.0,9.0,21.0,12.0,26.0,5.0,28.0,34.0,40.0,44.0,36.0,41.0,4.0
9,2,60,96.33333333333333,3.1319166666666667,1.0,44.416666666666664,7.083333333333333,89.25,7.0,14.0,9.0,21.0,12.0,26.0,5.0,28.0,34.0,40.0,44.0,36.0,41.0,4.0
10,2,90,70.66666666666667,2.6108333333333333,1.0,49.583333333333336,7.083333333333333,63.583333333333336,7.0,14.0,9.0,21.0,12.0,26.0,5.0,28.0,34.0,40.0,44.0,36.0,41.0,4.0
11,2,120,44.333333333333336,3.442833333333333,0.9166666666666666,27.666666666666668,7.083333333333333,37.25,7.0,14.0,9.0,21.0,12.0,26.0,5.0,28.0,34.0,40.0,44.0,36.0,41.0,4.0
12,2,150,13.916666666666666,3.1331666666666664,0.4166666666666667,34.333333333333336,7.083333333333333,6.833333333333333,7.0,14.0,9.0,21.0,12.0,26.0,5.0,28.0,34.0,40.0,44.0,36.0,41.0,4.0
13,2,180,7.083333333333333,3.2280833333333336,0.4166666666666667,42.5,7.083333333333333,0.0,7.0,14.0,9.0,21.0,12.0,26.0,5.0,28.0,34.0,40.0,44.0,36.0,41.0,4.0
14,3,0,81.66666666666667,4.026,1.0,35.5,27.916666666666668,53.75,15.555555555555555,22.0,17.0,11.0,15.0,11.0,5.0,48.0,32.0,37.0,37.0,36.0,67.0,0.0
15,3,30,84.83333333333333,3.463416666666667,1.0,51.333333333333336,27.916666666666668,56.91666666666666,15.555555555555555,22.0,17.0,11.0,15.0,11.0,5.0,48.0,32.0,37.0,37.0,36.0,67.0,0.0
16,3,60,70.0,3.7542500000000003,1.0,44.333333333333336,27.916666666666668,42.08333333333333,15.555555555555555,22.0,17.0,11.0,15.0,11.0,5.0,48.0,32.0,37.0,37.0,36.0,67.0,0.0
17,3,90,57.416666666666664,4.1074166666666665,0.9166666666666666,45.833333333333336,27.916666666666668,29.499999999999996,15.555555555555555,22.0,17.0,11.0,15.0,11.0,5.0,48.0,32.0,37.0,37.0,36.0,67.0,0.0
18,3,120,41.083333333333336,4.2299999999999995,0.8333333333333334,37.75,27.916666666666668,13.166666666666668,15.555555555555555,22.0,17.0,11.0,15.0,11.0,5.0,48.0,32.0,37.0,37.0,36.0,67.0,0.0
19,3,150,32.25,4.570583333333333,0.75,42.75,27.916666666666668,4.333333333333332,15.555555555555555,22.0,17.0,11.0,15.0,11.0,5.0,48.0,32.0,37.0,37.0,36.0,67.0,0.0
20,3,180,27.916666666666668,5.0536666666666665,0.5833333333333334,33.0,27.916666666666668,0.0,15.555555555555555,22.0,17.0,11.0,15.0,11.0,5.0,48.0,32.0,37.0,37.0,36.0,67.0,0.0
21,4,0,84.41666666666667,4.456833333333333,1.0,43.25,29.833333333333332,54.58333333333334,10.0,14.0,6.0,15.0,12.0,19.0,13.0,40.0,37.0,52.0,50.0,45.81818181818182,36.0,3.0
22,4,30,85.41666666666667,4.293583333333333,1.0,42.833333333333336,29.833333333333332,55.58333333333334,10.0,14.0,6.0,15.0,12.0,19.0,13.0,40.0,37.0,52.0,50.0,45.81818181818182,36.0,3.0
23,4,60,85.33333333333333,4.031916666666667,1.0,39.833333333333336,29.833333333333332,55.5,10.0,14.0,6.0,15.0,12.0,19.0,13.0,40.0,37.0,52.0,50.0,45.81818181818182,36.0,3.0
24,4,90,72.25,5.016166666666667,0.9166666666666666,37.333333333333336,29.833333333333332,42.41666666666667,10.0,14.0,6.0,15.0,12.0,19.0,13.0,40.0,37.0,52.0,50.0,45.81818181818182,36.0,3.0
25,4,120,54.0,5.008666666666667,0.8333333333333334,39.583333333333336,29.833333333333332,24.166666666666668,10.0,14.0,6.0,15.0,12.0,19.0,13.0,40.0,37.0,52.0,50.0,45.81818181818182,36.0,3.0
26,4,150,41.833333333333336,4.259416666666667,0.5,50.666666666666664,29.833333333333332,12.000000000000004,10.0,14.0,6.0,15.0,12.0,19.0,13.0,40.0,37.0,52.0,50.0,45.81818181818182,36.0,3.0
27,4,180,29.833333333333332,5.0045,0.5833333333333334,37.0,29.833333333333332,0.0,10.0,14.0,6.0,15.0,12.0,19.0,13.0,40.0,37.0,52.0,50.0,45.81818181818182,36.0,3.0
28,5,0,96.91666666666667,2.826916666666667,1.0,45.166666666666664,16.25,80.66666666666667,22.0,20.0,16.0,21.0,18.0,22.0,26.0,46.0,29.0,41.0,36.0,44.0,74.0,1.0
29,5,30,91.25,2.953666666666667,1.0,35.916666666666664,16.25,75.0,22.0,20.0,16.0,21.0,18.0,22.0,26.0,46.0,29.0,41.0,36.0,44.0,74.0,1.0
30,5,60,87.25,2.90525,1.0,35.333333333333336,16.25,71.0,22.0,20.0,16.0,21.0,18.0,22.0,26.0,46.0,29.0,41.0,36.0,44.0,74.0,1.0
31,5,90,41.083333333333336,3.0240833333333335,0.75,34.833333333333336,16.25,24.833333333333336,22.0,20.0,16.0,21.0,18.0,22.0,26.0,46.0,29.0,41.0,36.0,44.0,74.0,1.0
32,5,120,33.25,3.095916666666667,0.5833333333333334,40.0,16.25,17.0,22.0,20.0,16.0,21.0,18.0,22.0,26.0,46.0,29.0,41.0,36.0,44.0,74.0,1.0
33,5,150,19.666666666666668,2.938916666666667,0.6666666666666666,46.333333333333336,16.25,3.416666666666668,22.0,20.0,16.0,21.0,18.0,22.0,26.0,46.0,29.0,41.0,36.0,44.0,74.0,1.0
34,5,180,16.25,2.8523333333333336,0.5,52.916666666666664,16.25,0.0,22.0,20.0,16.0,21.0,18.0,22.0,26.0,46.0,29.0,41.0,36.0,44.0,74.0,1.0
35,6,0,100.0,2.92,1.0,49.666666666666664,20.916666666666668,79.08333333333333,16.0,18.0,13.0,18.0,14.0,37.0,10.0,43.0,43.0,36.0,46.0,54.0,59.0,1.0
36,6,30,100.0,2.921416666666667,1.0,40.333333333333336,20.916666666666668,79.08333333333333,16.0,18.0,13.0,18.0,14.0,37.0,10.0,43.0,43.0,36.0,46.0,54.0,59.0,1.0
37,6,60,98.66666666666667,3.0430833333333336,1.0,55.166666666666664,20.916666666666668,77.75,16.0,18.0,13.0,18.0,14.0,37.0,10.0,43.0,43.0,36.0,46.0,54.0,59.0,1.0
38,6,90,91.16666666666667,3.4025,1.0,32.5,20.916666666666668,70.25,16.0,18.0,13.0,18.0,14.0,37.0,10.0,43.0,43.0,36.0,46.0,54.0,59.0,1.0
39,6,120,68.5,2.9685,0.9166666666666666,37.583333333333336,20.916666666666668,47.58333333333333,16.0,18.0,13.0,18.0,14.0,37.0,10.0,43.0,43.0,36.0,46.0,54.0,59.0,1.0
40,6,150,55.25,3.1811666666666665,0.5833333333333334,34.333333333333336,20.916666666666668,34.33333333333333,16.0,18.0,13.0,18.0,14.0,37.0,10.0,43.0,43.0,36.0,46.0,54.0,59.0,1.0
41,6,180,20.916666666666668,3.35075,0.5,40.916666666666664,20.916666666666668,0.0,16.0,18.0,13.0,18.0,14.0,37.0,10.0,43.0,43.0,36.0,46.0,54.0,59.0,1.0
42,7,0,94.16666666666667,4.293,1.0,51.916666666666664,22.666666666666668,71.5,16.0,15.0,14.0,11.0,10.0,3.0,3.0,37.0,29.0,39.0,40.0,39.0,51.72222222222222,4.0
43,7,30,89.41666666666667,4.404166666666667,1.0,36.083333333333336,22.666666666666668,66.75,16.0,15.0,14.0,11.0,10.0,3.0,3.0,37.0,29.0,39.0,40.0,39.0,51.72222222222222,4.0
44,7,60,88.0,4.3797500000000005,1.0,32.583333333333336,22.666666666666668,65.33333333333333,16.0,15.0,14.0,11.0,10.0,3.0,3.0,37.0,29.0,39.0,40.0,39.0,51.72222222222222,4.0
45,7,90,67.58333333333333,4.977166666666666,0.9166666666666666,45.0,22.666666666666668,44.91666666666666,16.0,15.0,14.0,11.0,10.0,3.0,3.0,37.0,29.0,39.0,40.0,39.0,51.72222222222222,4.0
46,7,120,34.75,5.0040000000000004,0.6666666666666666,41.666666666666664,22.666666666666668,12.083333333333332,16.0,15.0,14.0,11.0,10.0,3.0,3.0,37.0,29.0,39.0,40.0,39.0,51.72222222222222,4.0
47,7,150,18.416666666666668,4.9271666666666665,0.5,41.083333333333336,22.666666666666668,-4.25,16.0,15.0,14.0,11.0,10.0,3.0,3.0,37.0,29.0,39.0,40.0,39.0,51.72222222222222,4.0
48,7,180,22.666666666666668,4.589916666666666,0.4166666666666667,42.166666666666664,22.666666666666668,0.0,16.0,15.0,14.0,11.0,10.0,3.0,3.0,37.0,29.0,39.0,40.0,39.0,51.72222222222222,4.0
49,8,0,97.0,2.205083333333333,1.0,38.583333333333336,17.083333333333332,79.91666666666667,14.0,22.0,8.0,26.0,11.0,16.0,13.0,48.0,27.0,48.0,48.0,38.0,52.0,6.0
50,8,30,95.91666666666667,2.1214999999999997,1.0,45.333333333333336,17.083333333333332,78.83333333333334,14.0,22.0,8.0,26.0,11.0,16.0,13.0,48.0,27.0,48.0,48.0,38.0,52.0,6.0
51,8,60,96.25,2.1740833333333334,1.0,45.083333333333336,17.083333333333332,79.16666666666667,14.0,22.0,8.0,26.0,11.0,16.0,13.0,48.0,27.0,48.0,48.0,38.0,52.0,6.0
52,8,90,91.66666666666667,1.9704166666666667,1.0,39.333333333333336,17.083333333333332,74.58333333333334,14.0,22.0,8.0,26.0,11.0,16.0,13.0,48.0,27.0,48.0,48.0,38.0,52.0,6.0
53,8,120,61.083333333333336,2.311916666666667,0.75,35.583333333333336,17.083333333333332,44.0,14.0,22.0,8.0,26.0,11.0,16.0,13.0,48.0,27.0,48.0,48.0,38.0,52.0,6.0
54,8,150,38.833333333333336,2.4106666666666667,0.25,41.25,17.083333333333332,21.750000000000004,14.0,22.0,8.0,26.0,11.0,16.0,13.0,48.0,27.0,48.0,48.0,38.0,52.0,6.0
55,8,180,17.083333333333332,2.6206666666666667,0.75,45.333333333333336,17.083333333333332,0.0,14.0,22.0,8.0,26.0,11.0,16.0,13.0,48.0,27.0,48.0,48.0,38.0,52.0,6.0
56,9,0,85.91666666666667,1.9039166666666667,1.0,44.833333333333336,16.166666666666668,69.75,26.0,16.0,10.0,16.0,16.0,19.0,4.0,30.0,29.0,44.0,40.0,47.0,57.0,2.0
57,9,30,84.33333333333333,1.7998333333333332,1.0,52.333333333333336,16.166666666666668,68.16666666666666,26.0,16.0,10.0,16.0,16.0,19.0,4.0,30.0,29.0,44.0,40.0,47.0,57.0,2.0
58,9,60,73.41666666666667,1.9781666666666666,1.0,35.833333333333336,16.166666666666668,57.25,26.0,16.0,10.0,16.0,16.0,19.0,4.0,30.0,29.0,44.0,40.0,47.0,57.0,2.0
59,9,90,59.5,1.9119166666666665,1.0,46.583333333333336,16.166666666666668,43.33333333333333,26.0,16.0,10.0,16.0,16.0,19.0,4.0,30.0,29.0,44.0,40.0,47.0,57.0,2.0
60,9,120,33.583333333333336,2.03375,0.8333333333333334,45.166666666666664,16.166666666666668,17.416666666666668,26.0,16.0,10.0,16.0,16.0,19.0,4.0,30.0,29.0,44.0,40.0,47.0,57.0,2.0
61,9,150,17.25,2.1060833333333333,0.6666666666666666,37.583333333333336,16.166666666666668,1.0833333333333321,26.0,16.0,10.0,16.0,16.0,19.0,4.0,30.0,29.0,44.0,40.0,47.0,57.0,2.0
62,9,180,16.166666666666668,2.3465000000000003,0.5833333333333334,28.166666666666668,16.166666666666668,0.0,26.0,16.0,10.0,16.0,16.0,19.0,4.0,30.0,29.0,44.0,40.0,47.0,57.0,2.0
63,10,0,98.16666666666667,3.4613333333333336,1.0,42.166666666666664,11.833333333333334,86.33333333333334,7.0,6.0,10.0,12.0,8.0,31.0,0.0,20.0,48.0,38.0,46.0,58.0,28.0,4.0
64,10,30,97.83333333333333,3.220083333333333,1.0,44.416666666666664,11.833333333333334,86.0,7.0,6.0,10.0,12.0,8.0,31.0,0.0,20.0,48.0,38.0,46.0,58.0,28.0,4.0
65,10,60,98.58333333333333,3.1079166666666667,1.0,42.833333333333336,11.833333333333334,86.75,7.0,6.0,10.0,12.0,8.0,31.0,0.0,20.0,48.0,38.0,46.0,58.0,28.0,4.0
66,10,90,89.66666666666667,3.4895833333333335,1.0,43.583333333333336,11.833333333333334,77.83333333333334,7.0,6.0,10.0,12.0,8.0,31.0,0.0,20.0,48.0,38.0,46.0,58.0,28.0,4.0
67,10,120,34.5,3.9865833333333334,0.6666666666666666,39.25,11.833333333333334,22.666666666666664,7.0,6.0,10.0,12.0,8.0,31.0,0.0,20.0,48.0,38.0,46.0,58.0,28.0,4.0
68,10,150,42.25,3.203416666666667,0.5833333333333334,42.333333333333336,11.833333333333334,30.416666666666664,7.0,6.0,10.0,12.0,8.0,31.0,0.0,20.0,48.0,38.0,46.0,58.0,28.0,4.0
69,10,180,11.833333333333334,4.366916666666667,0.5,35.916666666666664,11.833333333333334,0.0,7.0,6.0,10.0,12.0,8.0,31.0,0.0,20.0,48.0,38.0,46.0,58.0,28.0,4.0
70,12,0,100.0,2.9035833333333336,1.0,32.416666666666664,24.083333333333332,75.91666666666667,28.0,29.0,17.0,22.0,30.0,12.0,35.0,60.0,20.0,31.0,29.0,33.0,70.0,2.0
71,12,30,100.0,2.4383333333333335,1.0,38.416666666666664,24.083333333333332,75.91666666666667,28.0,29.0,17.0,22.0,30.0,12.0,35.0,60.0,20.0,31.0,29.0,33.0,70.0,2.0
72,12,60,98.83333333333333,2.862833333333333,0.9166666666666666,33.25,24.083333333333332,74.75,28.0,29.0,17.0,22.0,30.0,12.0,35.0,60.0,20.0,31.0,29.0,33.0,70.0,2.0
73,12,90,98.25,2.6014166666666667,1.0,51.333333333333336,24.083333333333332,74.16666666666667,28.0,29.0,17.0,22.0,30.0,12.0,35.0,60.0,20.0,31.0,29.0,33.0,70.0,2.0
74,12,120,57.333333333333336,3.28225,0.9166666666666666,42.0,24.083333333333332,33.25,28.0,29.0,17.0,22.0,30.0,12.0,35.0,60.0,20.0,31.0,29.0,33.0,70.0,2.0
75,12,150,35.416666666666664,3.6425,0.75,50.25,24.083333333333332,11.333333333333332,28.0,29.0,17.0,22.0,30.0,12.0,35.0,60.0,20.0,31.0,29.0,33.0,70.0,2.0
76,12,180,24.083333333333332,4.155,0.5,42.833333333333336,24.083333333333332,0.0,28.0,29.0,17.0,22.0,30.0,12.0,35.0,60.0,20.0,31.0,29.0,33.0,70.0,2.0
77,13,0,88.75,2.8425,1.0,45.0,17.25,71.5,10.0,22.0,6.0,19.0,14.0,20.0,6.0,32.0,31.0,41.0,38.0,31.0,44.0,4.0
78,13,30,87.0,3.7578333333333336,1.0,28.583333333333332,17.25,69.75,10.0,22.0,6.0,19.0,14.0,20.0,6.0,32.0,31.0,41.0,38.0,31.0,44.0,4.0
79,13,60,79.25,3.185416666666667,1.0,34.083333333333336,17.25,62.0,10.0,22.0,6.0,19.0,14.0,20.0,6.0,32.0,31.0,41.0,38.0,31.0,44.0,4.0
80,13,90,72.16666666666667,2.87025,1.0,52.833333333333336,17.25,54.91666666666667,10.0,22.0,6.0,19.0,14.0,20.0,6.0,32.0,31.0,41.0,38.0,31.0,44.0,4.0
81,13,120,32.666666666666664,3.078333333333333,0.8333333333333334,38.583333333333336,17.25,15.416666666666664,10.0,22.0,6.0,19.0,14.0,20.0,6.0,32.0,31.0,41.0,38.0,31.0,44.0,4.0
82,13,150,18.083333333333332,3.174,0.4166666666666667,38.333333333333336,17.25,0.8333333333333321,10.0,22.0,6.0,19.0,14.0,20.0,6.0,32.0,31.0,41.0,38.0,31.0,44.0,4.0
83,13,180,17.25,2.810166666666667,0.75,53.083333333333336,17.25,0.0,10.0,22.0,6.0,19.0,14.0,20.0,6.0,32.0,31.0,41.0,38.0,31.0,44.0,4.0
84,14,0,91.5,3.23025,1.0,35.583333333333336,30.166666666666668,61.33333333333333,4.0,9.0,3.0,21.0,0.0,37.0,0.0,44.0,50.0,50.0,46.0,60.0,60.0,2.0
85,14,30,96.33333333333333,2.29825,1.0,51.25,30.166666666666668,66.16666666666666,4.0,9.0,3.0,21.0,0.0,37.0,0.0,44.0,50.0,50.0,46.0,60.0,60.0,2.0
86,14,60,91.5,2.65375,0.9166666666666666,37.916666666666664,30.166666666666668,61.33333333333333,4.0,9.0,3.0,21.0,0.0,37.0,0.0,44.0,50.0,50.0,46.0,60.0,60.0,2.0
87,14,90,80.08333333333333,2.7929166666666667,0.9166666666666666,35.5,30.166666666666668,49.91666666666666,4.0,9.0,3.0,21.0,0.0,37.0,0.0,44.0,50.0,50.0,46.0,60.0,60.0,2.0
88,14,120,38.75,3.1011666666666664,0.8333333333333334,43.333333333333336,30.166666666666668,8.583333333333332,4.0,9.0,3.0,21.0,0.0,37.0,0.0,44.0,50.0,50.0,46.0,60.0,60.0,2.0
89,14,150,22.666666666666668,3.4836666666666667,0.4166666666666667,36.666666666666664,30.166666666666668,-7.5,4.0,9.0,3.0,21.0,0.0,37.0,0.0,44.0,50.0,50.0,46.0,60.0,60.0,2.0
90,14,180,30.166666666666668,3.1285833333333333,0.5833333333333334,50.25,30.166666666666668,0.0,4.0,9.0,3.0,21.0,0.0,37.0,0.0,44.0,50.0,50.0,46.0,60.0,60.0,2.0
91,15,0,80.66666666666667,4.580666666666667,0.8333333333333334,50.416666666666664,53.5,27.16666666666667,14.444444444444445,15.0,14.0,15.0,16.0,21.0,15.0,38.0,42.0,35.0,38.0,40.0,52.0,1.0
92,15,30,70.16666666666667,5.633416666666666,0.9166666666666666,53.833333333333336,53.5,16.66666666666667,14.444444444444445,15.0,14.0,15.0,16.0,21.0,15.0,38.0,42.0,35.0,38.0,40.0,52.0,1.0
93,15,60,72.33333333333333,4.506,0.5833333333333334,43.25,53.5,18.83333333333333,14.444444444444445,15.0,14.0,15.0,16.0,21.0,15.0,38.0,42.0,35.0,38.0,40.0,52.0,1.0
94,15,90,67.08333333333333,5.343833333333333,0.75,31.583333333333332,53.5,13.583333333333329,14.444444444444445,15.0,14.0,15.0,16.0,21.0,15.0,38.0,42.0,35.0,38.0,40.0,52.0,1.0
95,15,120,62.083333333333336,4.68775,0.8333333333333334,35.0,53.5,8.583333333333336,14.444444444444445,15.0,14.0,15.0,16.0,21.0,15.0,38.0,42.0,35.0,38.0,40.0,52.0,1.0
96,15,150,52.5,5.705333333333333,0.5833333333333334,40.5,53.5,-1.0,14.444444444444445,15.0,14.0,15.0,16.0,21.0,15.0,38.0,42.0,35.0,38.0,40.0,52.0,1.0
97,15,180,53.5,4.60325,0.6666666666666666,35.916666666666664,53.5,0.0,14.444444444444445,15.0,14.0,15.0,16.0,21.0,15.0,38.0,42.0,35.0,38.0,40.0,52.0,1.0
98,16,0,91.08333333333333,6.030333333333334,1.0,54.666666666666664,37.5,53.58333333333333,20.0,18.0,9.0,15.0,12.0,36.0,10.0,29.0,37.0,33.0,41.0,50.0,49.0,4.0
99,16,30,86.16666666666667,5.721416666666666,1.0,31.083333333333332,37.5,48.66666666666667,20.0,18.0,9.0,15.0,12.0,36.0,10.0,29.0,37.0,33.0,41.0,50.0,49.0,4.0
100,16,60,83.45454545454545,6.410666666666667,0.9166666666666666,45.583333333333336,37.5,45.95454545454545,20.0,18.0,9.0,15.0,12.0,36.0,10.0,29.0,37.0,33.0,41.0,50.0,49.0,4.0
101,16,90,71.66666666666667,5.839833333333334,0.9166666666666666,44.166666666666664,37.5,34.16666666666667,20.0,18.0,9.0,15.0,12.0,36.0,10.0,29.0,37.0,33.0,41.0,50.0,49.0,4.0
102,16,120,47.416666666666664,6.306166666666667,0.5833333333333334,53.666666666666664,37.5,9.916666666666664,20.0,18.0,9.0,15.0,12.0,36.0,10.0,29.0,37.0,33.0,41.0,50.0,49.0,4.0
103,16,150,53.083333333333336,6.3065,0.5,30.916666666666668,37.5,15.583333333333336,20.0,18.0,9.0,15.0,12.0,36.0,10.0,29.0,37.0,33.0,41.0,50.0,49.0,4.0
104,16,180,37.5,6.331333333333333,0.4166666666666667,30.416666666666668,37.5,0.0,20.0,18.0,9.0,15.0,12.0,36.0,10.0,29.0,37.0,33.0,41.0,50.0,49.0,4.0
105,17,0,72.75,2.8623333333333334,1.0,32.916666666666664,43.083333333333336,29.666666666666664,14.0,17.0,12.0,16.0,15.0,28.0,16.0,41.0,40.0,36.0,41.0,43.0,50.0,4.0
106,17,30,72.75,2.7311666666666667,0.9166666666666666,39.5,43.083333333333336,29.666666666666664,14.0,17.0,12.0,16.0,15.0,28.0,16.0,41.0,40.0,36.0,41.0,43.0,50.0,4.0
107,17,60,74.0,2.3958333333333335,1.0,51.25,43.083333333333336,30.916666666666664,14.0,17.0,12.0,16.0,15.0,28.0,16.0,41.0,40.0,36.0,41.0,43.0,50.0,4.0
108,17,90,60.25,2.5711666666666666,0.9166666666666666,34.75,43.083333333333336,17.166666666666664,14.0,17.0,12.0,16.0,15.0,28.0,16.0,41.0,40.0,36.0,41.0,43.0,50.0,4.0
109,17,120,47.166666666666664,2.889583333333333,0.8333333333333334,44.333333333333336,43.083333333333336,4.083333333333329,14.0,17.0,12.0,16.0,15.0,28.0,16.0,41.0,40.0,36.0,41.0,43.0,50.0,4.0
110,17,150,37.833333333333336,3.7413333333333334,0.5833333333333334,34.666666666666664,43.083333333333336,-5.25,14.0,17.0,12.0,16.0,15.0,28.0,16.0,41.0,40.0,36.0,41.0,43.0,50.0,4.0
111,17,180,43.083333333333336,3.0284999999999997,0.3333333333333333,53.083333333333336,43.083333333333336,0.0,14.0,17.0,12.0,16.0,15.0,28.0,16.0,41.0,40.0,36.0,41.0,43.0,50.0,4.0
112,18,0,88.58333333333333,2.97275,1.0,23.166666666666668,29.083333333333332,59.5,16.0,15.0,9.0,5.0,13.0,12.0,1.0,28.0,36.0,33.0,41.0,43.0,34.0,2.0
113,18,30,86.0,3.1924166666666665,1.0,42.25,29.083333333333332,56.91666666666667,16.0,15.0,9.0,5.0,13.0,12.0,1.0,28.0,36.0,33.0,41.0,43.0,34.0,2.0
114,18,60,86.75,3.0061666666666667,1.0,43.666666666666664,29.083333333333332,57.66666666666667,16.0,15.0,9.0,5.0,13.0,12.0,1.0,28.0,36.0,33.0,41.0,43.0,34.0,2.0
115,18,90,69.33333333333333,2.8464166666666664,1.0,56.583333333333336,29.083333333333332,40.25,16.0,15.0,9.0,5.0,13.0,12.0,1.0,28.0,36.0,33.0,41.0,43.0,34.0,2.0
116,18,120,36.916666666666664,2.889,0.5833333333333334,38.166666666666664,29.083333333333332,7.833333333333332,16.0,15.0,9.0,5.0,13.0,12.0,1.0,28.0,36.0,33.0,41.0,43.0,34.0,2.0
117,18,150,30.0,3.1671666666666667,0.5833333333333334,36.5,29.083333333333332,0.9166666666666679,16.0,15.0,9.0,5.0,13.0,12.0,1.0,28.0,36.0,33.0,41.0,43.0,34.0,2.0
118,18,180,29.083333333333332,2.574333333333333,0.3333333333333333,50.166666666666664,29.083333333333332,0.0,16.0,15.0,9.0,5.0,13.0,12.0,1.0,28.0,36.0,33.0,41.0,43.0,34.0,2.0
119,19,0,94.33333333333333,3.2241666666666666,1.0,37.25,7.666666666666667,86.66666666666666,10.0,18.0,8.0,14.0,7.0,24.0,1.0,17.0,37.0,48.0,45.0,43.0,30.0,3.0
120,19,30,92.5,3.1765000000000003,1.0,39.0,7.666666666666667,84.83333333333333,10.0,18.0,8.0,14.0,7.0,24.0,1.0,17.0,37.0,48.0,45.0,43.0,30.0,3.0
121,19,60,89.0,3.2285833333333334,1.0,38.416666666666664,7.666666666666667,81.33333333333333,10.0,18.0,8.0,14.0,7.0,24.0,1.0,17.0,37.0,48.0,45.0,43.0,30.0,3.0
122,19,90,61.083333333333336,3.5789166666666667,1.0,41.166666666666664,7.666666666666667,53.41666666666667,10.0,18.0,8.0,14.0,7.0,24.0,1.0,17.0,37.0,48.0,45.0,43.0,30.0,3.0
123,19,120,28.833333333333332,3.2207500000000002,1.0,45.0,7.666666666666667,21.166666666666664,10.0,18.0,8.0,14.0,7.0,24.0,1.0,17.0,37.0,48.0,45.0,43.0,30.0,3.0
124,19,150,22.333333333333332,3.9500833333333336,0.5833333333333334,41.583333333333336,7.666666666666667,14.666666666666664,10.0,18.0,8.0,14.0,7.0,24.0,1.0,17.0,37.0,48.0,45.0,43.0,30.0,3.0
125,19,180,7.666666666666667,3.6459166666666665,0.4166666666666667,48.083333333333336,7.666666666666667,0.0,10.0,18.0,8.0,14.0,7.0,24.0,1.0,17.0,37.0,48.0,45.0,43.0,30.0,3.0
126,20,0,94.08333333333333,4.467583333333334,1.0,34.416666666666664,20.666666666666668,73.41666666666666,10.0,20.0,8.0,14.0,8.0,30.0,10.0,32.0,39.0,51.0,43.0,52.0,53.0,4.0
127,20,30,93.0,4.684916666666667,1.0,48.25,20.666666666666668,72.33333333333333,10.0,20.0,8.0,14.0,8.0,30.0,10.0,32.0,39.0,51.0,43.0,52.0,53.0,4.0
128,20,60,80.75,4.114999999999999,1.0,49.0,20.666666666666668,60.08333333333333,10.0,20.0,8.0,14.0,8.0,30.0,10.0,32.0,39.0,51.0,43.0,52.0,53.0,4.0
129,20,90,74.75,4.250666666666667,0.8333333333333334,39.333333333333336,20.666666666666668,54.08333333333333,10.0,20.0,8.0,14.0,8.0,30.0,10.0,32.0,39.0,51.0,43.0,52.0,53.0,4.0
130,20,120,44.416666666666664,5.331333333333333,0.75,39.416666666666664,20.666666666666668,23.749999999999996,10.0,20.0,8.0,14.0,8.0,30.0,10.0,32.0,39.0,51.0,43.0,52.0,53.0,4.0
131,20,150,30.416666666666668,4.917916666666667,0.5,38.083333333333336,20.666666666666668,9.75,10.0,20.0,8.0,14.0,8.0,30.0,10.0,32.0,39.0,51.0,43.0,52.0,53.0,4.0
132,20,180,20.666666666666668,4.92825,0.6666666666666666,42.0,20.666666666666668,0.0,10.0,20.0,8.0,14.0,8.0,30.0,10.0,32.0,39.0,51.0,43.0,52.0,53.0,4.0
133,21,0,90.0,2.636,1.0,32.0,13.666666666666666,76.33333333333333,7.0,9.0,7.0,10.0,4.0,33.0,0.0,12.0,42.0,43.0,51.0,50.0,20.0,4.0
134,21,30,93.75,2.3839166666666665,1.0,41.083333333333336,13.666666666666666,80.08333333333333,7.0,9.0,7.0,10.0,4.0,33.0,0.0,12.0,42.0,43.0,51.0,50.0,20.0,4.0
135,21,60,94.41666666666667,2.69575,1.0,46.25,13.666666666666666,80.75,7.0,9.0,7.0,10.0,4.0,33.0,0.0,12.0,42.0,43.0,51.0,50.0,20.0,4.0
136,21,90,78.16666666666667,2.7540833333333334,1.0,42.666666666666664,13.666666666666666,64.5,7.0,9.0,7.0,10.0,4.0,33.0,0.0,12.0,42.0,43.0,51.0,50.0,20.0,4.0
137,21,120,43.5,2.65025,0.9166666666666666,43.833333333333336,13.666666666666666,29.833333333333336,7.0,9.0,7.0,10.0,4.0,33.0,0.0,12.0,42.0,43.0,51.0,50.0,20.0,4.0
138,21,150,17.833333333333332,2.5224166666666665,0.4166666666666667,44.666666666666664,13.666666666666666,4.166666666666666,7.0,9.0,7.0,10.0,4.0,33.0,0.0,12.0,42.0,43.0,51.0,50.0,20.0,4.0
139,21,180,13.666666666666666,2.58175,0.5,40.0,13.666666666666666,0.0,7.0,9.0,7.0,10.0,4.0,33.0,0.0,12.0,42.0,43.0,51.0,50.0,20.0,4.0
140,22,0,78.66666666666667,3.575583333333333,0.9166666666666666,39.083333333333336,40.666666666666664,38.00000000000001,6.0,11.0,6.0,13.0,4.0,23.0,1.0,27.0,52.0,44.0,48.0,53.0,29.0,6.0
141,22,30,71.58333333333333,3.801,0.8333333333333334,44.5,40.666666666666664,30.916666666666664,6.0,11.0,6.0,13.0,4.0,23.0,1.0,27.0,52.0,44.0,48.0,53.0,29.0,6.0
142,22,60,75.58333333333333,3.683666666666667,1.0,37.083333333333336,40.666666666666664,34.916666666666664,6.0,11.0,6.0,13.0,4.0,23.0,1.0,27.0,52.0,44.0,48.0,53.0,29.0,6.0
143,22,90,68.16666666666667,3.467,1.0,40.166666666666664,40.666666666666664,27.500000000000007,6.0,11.0,6.0,13.0,4.0,23.0,1.0,27.0,52.0,44.0,48.0,53.0,29.0,6.0
144,22,120,43.63636363636363,4.936583333333333,0.8333333333333334,37.083333333333336,40.666666666666664,2.969696969696969,6.0,11.0,6.0,13.0,4.0,23.0,1.0,27.0,52.0,44.0,48.0,53.0,29.0,6.0
145,22,150,33.0,4.453416666666667,0.25,48.833333333333336,40.666666666666664,-7.666666666666664,6.0,11.0,6.0,13.0,4.0,23.0,1.0,27.0,52.0,44.0,48.0,53.0,29.0,6.0
146,22,180,40.666666666666664,4.5577499999999995,0.6666666666666666,43.75,40.666666666666664,0.0,6.0,11.0,6.0,13.0,4.0,23.0,1.0,27.0,52.0,44.0,48.0,53.0,29.0,6.0
147,25,0,95.75,2.857083333333333,1.0,41.333333333333336,18.75,77.0,24.0,16.0,11.0,12.0,12.0,14.0,0.0,25.0,22.0,51.0,33.0,34.90909090909091,65.0,0.0
148,25,30,96.0,2.9086666666666665,1.0,44.25,18.75,77.25,24.0,16.0,11.0,12.0,12.0,14.0,0.0,25.0,22.0,51.0,33.0,34.90909090909091,65.0,0.0
149,25,60,97.83333333333333,2.7901666666666665,1.0,39.666666666666664,18.75,79.08333333333333,24.0,16.0,11.0,12.0,12.0,14.0,0.0,25.0,22.0,51.0,33.0,34.90909090909091,65.0,0.0
150,25,90,97.25,3.004,1.0,43.666666666666664,18.75,78.5,24.0,16.0,11.0,12.0,12.0,14.0,0.0,25.0,22.0,51.0,33.0,34.90909090909091,65.0,0.0
151,25,120,72.66666666666667,2.8343333333333334,0.9166666666666666,45.833333333333336,18.75,53.91666666666667,24.0,16.0,11.0,12.0,12.0,14.0,0.0,25.0,22.0,51.0,33.0,34.90909090909091,65.0,0.0
152,25,150,10.25,3.1613333333333333,0.75,38.916666666666664,18.75,-8.5,24.0,16.0,11.0,12.0,12.0,14.0,0.0,25.0,22.0,51.0,33.0,34.90909090909091,65.0,0.0
153,25,180,18.75,3.3475,0.5833333333333334,36.833333333333336,18.75,0.0,24.0,16.0,11.0,12.0,12.0,14.0,0.0,25.0,22.0,51.0,33.0,34.90909090909091,65.0,0.0
154,26,0,96.25,3.18425,0.9166666666666666,34.75,16.666666666666668,79.58333333333333,21.0,15.0,8.0,15.0,11.0,17.0,6.0,34.0,26.0,32.0,44.0,56.0,35.0,1.0
155,26,30,97.5,2.868916666666667,1.0,45.083333333333336,16.666666666666668,80.83333333333333,21.0,15.0,8.0,15.0,11.0,17.0,6.0,34.0,26.0,32.0,44.0,56.0,35.0,1.0
156,26,60,87.25,3.237833333333333,1.0,46.0,16.666666666666668,70.58333333333333,21.0,15.0,8.0,15.0,11.0,17.0,6.0,34.0,26.0,32.0,44.0,56.0,35.0,1.0
157,26,90,65.25,3.265416666666667,1.0,39.166666666666664,16.666666666666668,48.58333333333333,21.0,15.0,8.0,15.0,11.0,17.0,6.0,34.0,26.0,32.0,44.0,56.0,35.0,1.0
158,26,120,29.75,3.7474166666666666,0.6666666666666666,39.5,16.666666666666668,13.083333333333332,21.0,15.0,8.0,15.0,11.0,17.0,6.0,34.0,26.0,32.0,44.0,56.0,35.0,1.0
159,26,150,17.833333333333332,3.7862500000000003,0.6666666666666666,41.5,16.666666666666668,1.1666666666666643,21.0,15.0,8.0,15.0,11.0,17.0,6.0,34.0,26.0,32.0,44.0,56.0,35.0,1.0
160,26,180,16.666666666666668,3.927583333333333,0.3333333333333333,44.5,16.666666666666668,0.0,21.0,15.0,8.0,15.0,11.0,17.0,6.0,34.0,26.0,32.0,44.0,56.0,35.0,1.0
161,27,0,95.91666666666667,4.1379166666666665,1.0,44.833333333333336,0.16666666666666666,95.75,21.0,15.0,18.0,13.0,9.0,13.0,16.0,36.0,24.0,41.0,39.0,47.0,74.0,1.0
162,27,30,91.66666666666667,4.34325,0.9166666666666666,49.25,0.16666666666666666,91.5,21.0,15.0,18.0,13.0,9.0,13.0,16.0,36.0,24.0,41.0,39.0,47.0,74.0,1.0
163,27,60,100.0,3.9423333333333335,1.0,40.583333333333336,0.16666666666666666,99.83333333333333,21.0,15.0,18.0,13.0,9.0,13.0,16.0,36.0,24.0,41.0,39.0,47.0,74.0,1.0
164,27,90,54.54545454545455,4.4715,0.75,41.0,0.16666666666666666,54.37878787878788,21.0,15.0,18.0,13.0,9.0,13.0,16.0,36.0,24.0,41.0,39.0,47.0,74.0,1.0
165,27,120,8.333333333333334,4.277333333333334,0.5833333333333334,31.666666666666668,0.16666666666666666,8.166666666666668,21.0,15.0,18.0,13.0,9.0,13.0,16.0,36.0,24.0,41.0,39.0,47.0,74.0,1.0
166,27,150,0.0,3.8840833333333333,0.5833333333333334,39.416666666666664,0.16666666666666666,-0.16666666666666666,21.0,15.0,18.0,13.0,9.0,13.0,16.0,36.0,24.0,41.0,39.0,47.0,74.0,1.0
167,27,180,0.16666666666666666,4.7789166666666665,0.4166666666666667,43.75,0.16666666666666666,0.0,21.0,15.0,18.0,13.0,9.0,13.0,16.0,36.0,24.0,41.0,39.0,47.0,74.0,1.0
168,28,0,78.16666666666667,1.7932499999999998,1.0,42.666666666666664,24.166666666666668,54.0,19.0,17.0,15.0,17.0,14.0,19.0,4.0,41.0,31.0,41.0,40.0,38.0,54.0,2.0
169,28,30,73.0,1.729,1.0,41.833333333333336,24.166666666666668,48.83333333333333,19.0,17.0,15.0,17.0,14.0,19.0,4.0,41.0,31.0,41.0,40.0,38.0,54.0,2.0
170,28,60,70.83333333333333,2.1305833333333335,0.9166666666666666,41.583333333333336,24.166666666666668,46.66666666666666,19.0,17.0,15.0,17.0,14.0,19.0,4.0,41.0,31.0,41.0,40.0,38.0,54.0,2.0
171,28,90,67.08333333333333,1.8664166666666666,1.0,38.833333333333336,24.166666666666668,42.91666666666666,19.0,17.0,15.0,17.0,14.0,19.0,4.0,41.0,31.0,41.0,40.0,38.0,54.0,2.0
172,28,120,51.72727272727273,3.0845833333333332,0.5833333333333334,45.75,24.166666666666668,27.56060606060606,19.0,17.0,15.0,17.0,14.0,19.0,4.0,41.0,31.0,41.0,40.0,38.0,54.0,2.0
173,28,150,28.0,1.9308333333333332,0.6666666666666666,43.166666666666664,24.166666666666668,3.833333333333332,19.0,17.0,15.0,17.0,14.0,19.0,4.0,41.0,31.0,41.0,40.0,38.0,54.0,2.0
174,28,180,24.166666666666668,2.111666666666667,0.5833333333333334,36.666666666666664,24.166666666666668,0.0,19.0,17.0,15.0,17.0,14.0,19.0,4.0,41.0,31.0,41.0,40.0,38.0,54.0,2.0
175,29,0,100.0,2.8369166666666668,1.0,44.333333333333336,8.333333333333334,91.66666666666667,22.0,16.0,14.0,14.0,17.0,13.0,1.0,31.0,29.0,42.0,40.0,43.63636363636363,43.0,1.0
176,29,30,98.66666666666667,3.24875,1.0,41.0,8.333333333333334,90.33333333333334,22.0,16.0,14.0,14.0,17.0,13.0,1.0,31.0,29.0,42.0,40.0,43.63636363636363,43.0,1.0
177,29,60,85.25,2.7081666666666666,1.0,43.5,8.333333333333334,76.91666666666667,22.0,16.0,14.0,14.0,17.0,13.0,1.0,31.0,29.0,42.0,40.0,43.63636363636363,43.0,1.0
178,29,90,57.166666666666664,3.0188333333333333,1.0,39.416666666666664,8.333333333333334,48.83333333333333,22.0,16.0,14.0,14.0,17.0,13.0,1.0,31.0,29.0,42.0,40.0,43.63636363636363,43.0,1.0
179,29,120,7.583333333333333,3.34325,0.8333333333333334,47.5,8.333333333333334,-0.7500000000000009,22.0,16.0,14.0,14.0,17.0,13.0,1.0,31.0,29.0,42.0,40.0,43.63636363636363,43.0,1.0
180,29,150,18.333333333333332,3.105,0.3333333333333333,33.583333333333336,8.333333333333334,9.999999999999998,22.0,16.0,14.0,14.0,17.0,13.0,1.0,31.0,29.0,42.0,40.0,43.63636363636363,43.0,1.0
181,29,180,8.333333333333334,3.5789166666666667,0.5833333333333334,41.166666666666664,8.333333333333334,0.0,22.0,16.0,14.0,14.0,17.0,13.0,1.0,31.0,29.0,42.0,40.0,43.63636363636363,43.0,1.0
182,30,0,95.5,2.3398333333333334,1.0,36.75,42.0,53.5,4.0,9.0,6.666666666666667,21.0,6.0,35.0,0.0,24.0,52.0,37.0,39.0,58.0,23.0,15.0
183,30,30,96.58333333333333,1.9305,1.0,54.833333333333336,42.0,54.58333333333333,4.0,9.0,6.666666666666667,21.0,6.0,35.0,0.0,24.0,52.0,37.0,39.0,58.0,23.0,15.0
184,30,60,88.08333333333333,3.2884166666666665,0.6666666666666666,39.333333333333336,42.0,46.08333333333333,4.0,9.0,6.666666666666667,21.0,6.0,35.0,0.0,24.0,52.0,37.0,39.0,58.0,23.0,15.0
185,30,90,86.41666666666667,2.4650833333333333,0.9166666666666666,46.916666666666664,42.0,44.41666666666667,4.0,9.0,6.666666666666667,21.0,6.0,35.0,0.0,24.0,52.0,37.0,39.0,58.0,23.0,15.0
186,30,120,53.25,2.8129166666666667,0.5,34.333333333333336,42.0,11.25,4.0,9.0,6.666666666666667,21.0,6.0,35.0,0.0,24.0,52.0,37.0,39.0,58.0,23.0,15.0
187,30,150,32.666666666666664,2.4345833333333333,0.5,42.416666666666664,42.0,-9.333333333333336,4.0,9.0,6.666666666666667,21.0,6.0,35.0,0.0,24.0,52.0,37.0,39.0,58.0,23.0,15.0
188,30,180,42.0,2.65625,0.4166666666666667,35.916666666666664,42.0,0.0,4.0,9.0,6.666666666666667,21.0,6.0,35.0,0.0,24.0,52.0,37.0,39.0,58.0,23.0,15.0
189,31,0,95.08333333333333,3.59325,1.0,42.916666666666664,24.583333333333332,70.5,19.0,16.666666666666668,16.0,23.0,19.0,4.0,12.0,46.0,31.0,35.0,42.0,36.0,62.0,6.0
190,31,30,91.58333333333333,3.6703333333333332,0.9166666666666666,39.083333333333336,24.583333333333332,67.0,19.0,16.666666666666668,16.0,23.0,19.0,4.0,12.0,46.0,31.0,35.0,42.0,36.0,62.0,6.0
191,31,60,92.58333333333333,3.6626666666666665,0.9166666666666666,38.666666666666664,24.583333333333332,68.0,19.0,16.666666666666668,16.0,23.0,19.0,4.0,12.0,46.0,31.0,35.0,42.0,36.0,62.0,6.0
192,31,90,80.08333333333333,3.691333333333333,1.0,40.0,24.583333333333332,55.5,19.0,16.666666666666668,16.0,23.0,19.0,4.0,12.0,46.0,31.0,35.0,42.0,36.0,62.0,6.0
193,31,120,62.0,3.6326666666666667,0.6666666666666666,42.666666666666664,24.583333333333332,37.41666666666667,19.0,16.666666666666668,16.0,23.0,19.0,4.0,12.0,46.0,31.0,35.0,42.0,36.0,62.0,6.0
194,31,150,37.333333333333336,3.7755833333333335,0.8333333333333334,54.583333333333336,24.583333333333332,12.750000000000004,19.0,16.666666666666668,16.0,23.0,19.0,4.0,12.0,46.0,31.0,35.0,42.0,36.0,62.0,6.0
195,31,180,24.583333333333332,4.362416666666666,0.5833333333333334,32.583333333333336,24.583333333333332,0.0,19.0,16.666666666666668,16.0,23.0,19.0,4.0,12.0,46.0,31.0,35.0,42.0,36.0,62.0,6.0
196,32,0,87.33333333333333,2.5001666666666664,0.9166666666666666,41.0,24.0,63.33333333333333,10.0,16.0,7.0,15.0,10.0,8.0,1.0,37.0,46.0,45.0,42.0,44.0,46.0,5.0
197,32,30,85.66666666666667,2.5184166666666665,1.0,51.333333333333336,24.0,61.66666666666667,10.0,16.0,7.0,15.0,10.0,8.0,1.0,37.0,46.0,45.0,42.0,44.0,46.0,5.0
198,32,60,77.0,2.432166666666667,1.0,32.333333333333336,24.0,53.0,10.0,16.0,7.0,15.0,10.0,8.0,1.0,37.0,46.0,45.0,42.0,44.0,46.0,5.0
199,32,90,74.08333333333333,2.6779166666666665,1.0,46.0,24.0,50.08333333333333,10.0,16.0,7.0,15.0,10.0,8.0,1.0,37.0,46.0,45.0,42.0,44.0,46.0,5.0
200,32,120,34.583333333333336,3.0043333333333333,0.8333333333333334,34.666666666666664,24.0,10.583333333333336,10.0,16.0,7.0,15.0,10.0,8.0,1.0,37.0,46.0,45.0,42.0,44.0,46.0,5.0
201,32,150,28.166666666666668,2.8335000000000004,0.8333333333333334,47.833333333333336,24.0,4.166666666666668,10.0,16.0,7.0,15.0,10.0,8.0,1.0,37.0,46.0,45.0,42.0,44.0,46.0,5.0
202,32,180,24.0,2.87825,0.75,37.333333333333336,24.0,0.0,10.0,16.0,7.0,15.0,10.0,8.0,1.0,37.0,46.0,45.0,42.0,44.0,46.0,5.0
203,33,0,98.58333333333333,3.216833333333333,1.0,45.083333333333336,16.25,82.33333333333333,20.0,20.0,9.0,6.0,14.0,26.0,5.0,26.0,41.0,37.0,41.0,56.0,50.0,3.0
204,33,30,97.25,2.9149166666666666,1.0,48.166666666666664,16.25,81.0,20.0,20.0,9.0,6.0,14.0,26.0,5.0,26.0,41.0,37.0,41.0,56.0,50.0,3.0
205,33,60,89.83333333333333,3.0852500000000003,1.0,43.666666666666664,16.25,73.58333333333333,20.0,20.0,9.0,6.0,14.0,26.0,5.0,26.0,41.0,37.0,41.0,56.0,50.0,3.0
206,33,90,82.0,3.846083333333333,1.0,40.666666666666664,16.25,65.75,20.0,20.0,9.0,6.0,14.0,26.0,5.0,26.0,41.0,37.0,41.0,56.0,50.0,3.0
207,33,120,46.916666666666664,3.500916666666667,1.0,41.0,16.25,30.666666666666664,20.0,20.0,9.0,6.0,14.0,26.0,5.0,26.0,41.0,37.0,41.0,56.0,50.0,3.0
208,33,150,11.75,3.658333333333333,0.5,35.166666666666664,16.25,-4.5,20.0,20.0,9.0,6.0,14.0,26.0,5.0,26.0,41.0,37.0,41.0,56.0,50.0,3.0
209,33,180,16.25,3.9470833333333335,0.5,36.75,16.25,0.0,20.0,20.0,9.0,6.0,14.0,26.0,5.0,26.0,41.0,37.0,41.0,56.0,50.0,3.0
210,34,0,93.5,2.688166666666667,1.0,47.583333333333336,29.833333333333332,63.66666666666667,6.0,9.0,6.0,14.0,7.0,28.0,8.0,26.0,47.0,43.0,45.0,42.0,28.0,15.0
211,34,30,94.33333333333333,2.8095833333333338,1.0,36.666666666666664,29.833333333333332,64.5,6.0,9.0,6.0,14.0,7.0,28.0,8.0,26.0,47.0,43.0,45.0,42.0,28.0,15.0
212,34,60,89.0,2.95975,1.0,37.166666666666664,29.833333333333332,59.16666666666667,6.0,9.0,6.0,14.0,7.0,28.0,8.0,26.0,47.0,43.0,45.0,42.0,28.0,15.0
213,34,90,69.25,3.1025833333333335,0.8333333333333334,52.833333333333336,29.833333333333332,39.41666666666667,6.0,9.0,6.0,14.0,7.0,28.0,8.0,26.0,47.0,43.0,45.0,42.0,28.0,15.0
214,34,120,33.333333333333336,3.7398333333333333,0.5833333333333334,26.666666666666668,29.833333333333332,3.5000000000000036,6.0,9.0,6.0,14.0,7.0,28.0,8.0,26.0,47.0,43.0,45.0,42.0,28.0,15.0
215,34,150,27.833333333333332,2.9265000000000003,0.5833333333333334,42.083333333333336,29.833333333333332,-2.0,6.0,9.0,6.0,14.0,7.0,28.0,8.0,26.0,47.0,43.0,45.0,42.0,28.0,15.0
216,34,180,29.833333333333332,3.3683333333333336,0.5833333333333334,47.5,29.833333333333332,0.0,6.0,9.0,6.0,14.0,7.0,28.0,8.0,26.0,47.0,43.0,45.0,42.0,28.0,15.0
217,35,0,99.75,2.6804166666666664,1.0,31.333333333333332,8.416666666666666,91.33333333333333,14.0,13.0,12.0,17.0,12.0,28.0,0.0,28.0,41.0,44.0,41.0,48.0,51.0,5.0
218,35,30,89.83333333333333,3.2414166666666664,0.9166666666666666,43.666666666666664,8.416666666666666,81.41666666666666,14.0,13.0,12.0,17.0,12.0,28.0,0.0,28.0,41.0,44.0,41.0,48.0,51.0,5.0
219,35,60,97.0,3.202083333333333,1.0,43.666666666666664,8.416666666666666,88.58333333333333,14.0,13.0,12.0,17.0,12.0,28.0,0.0,28.0,41.0,44.0,41.0,48.0,51.0,5.0
220,35,90,87.16666666666667,2.85725,1.0,43.75,8.416666666666666,78.75,14.0,13.0,12.0,17.0,12.0,28.0,0.0,28.0,41.0,44.0,41.0,48.0,51.0,5.0
221,35,120,29.75,2.7846666666666664,0.9166666666666666,39.333333333333336,8.416666666666666,21.333333333333336,14.0,13.0,12.0,17.0,12.0,28.0,0.0,28.0,41.0,44.0,41.0,48.0,51.0,5.0
222,35,150,17.083333333333332,3.0076666666666667,0.5,42.25,8.416666666666666,8.666666666666666,14.0,13.0,12.0,17.0,12.0,28.0,0.0,28.0,41.0,44.0,41.0,48.0,51.0,5.0
223,35,180,8.416666666666666,3.1013333333333333,0.4166666666666667,46.5,8.416666666666666,0.0,14.0,13.0,12.0,17.0,12.0,28.0,0.0,28.0,41.0,44.0,41.0,48.0,51.0,5.0
224,36,0,100.0,4.677166666666667,0.9166666666666666,45.5,0.0,100.0,6.666666666666667,18.0,9.0,18.0,13.0,33.0,14.0,38.0,42.0,42.0,35.0,46.0,36.0,4.0
225,36,30,100.0,4.741416666666667,0.9166666666666666,30.583333333333332,0.0,100.0,6.666666666666667,18.0,9.0,18.0,13.0,33.0,14.0,38.0,42.0,42.0,35.0,46.0,36.0,4.0
226,36,60,100.0,5.235916666666667,1.0,39.916666666666664,0.0,100.0,6.666666666666667,18.0,9.0,18.0,13.0,33.0,14.0,38.0,42.0,42.0,35.0,46.0,36.0,4.0
227,36,90,83.25,5.317916666666666,0.9166666666666666,39.5,0.0,83.25,6.666666666666667,18.0,9.0,18.0,13.0,33.0,14.0,38.0,42.0,42.0,35.0,46.0,36.0,4.0
228,36,120,16.583333333333332,4.8269166666666665,0.6666666666666666,37.166666666666664,0.0,16.583333333333332,6.666666666666667,18.0,9.0,18.0,13.0,33.0,14.0,38.0,42.0,42.0,35.0,46.0,36.0,4.0
229,36,150,33.333333333333336,5.149666666666667,0.6666666666666666,58.416666666666664,0.0,33.333333333333336,6.666666666666667,18.0,9.0,18.0,13.0,33.0,14.0,38.0,42.0,42.0,35.0,46.0,36.0,4.0
230,36,180,0.0,5.865083333333334,0.5833333333333334,39.416666666666664,0.0,0.0,6.666666666666667,18.0,9.0,18.0,13.0,33.0,14.0,38.0,42.0,42.0,35.0,46.0,36.0,4.0
231,37,0,100.0,1.7966666666666669,1.0,31.666666666666668,8.333333333333334,91.66666666666667,9.0,14.0,9.0,19.0,8.0,31.0,12.0,36.0,42.0,39.0,42.0,43.0,50.0,4.0
232,37,30,100.0,2.0523333333333333,1.0,32.25,8.333333333333334,91.66666666666667,9.0,14.0,9.0,19.0,8.0,31.0,12.0,36.0,42.0,39.0,42.0,43.0,50.0,4.0
233,37,60,100.0,1.7615833333333333,1.0,51.166666666666664,8.333333333333334,91.66666666666667,9.0,14.0,9.0,19.0,8.0,31.0,12.0,36.0,42.0,39.0,42.0,43.0,50.0,4.0
234,37,90,100.0,1.9269999999999998,1.0,44.833333333333336,8.333333333333334,91.66666666666667,9.0,14.0,9.0,19.0,8.0,31.0,12.0,36.0,42.0,39.0,42.0,43.0,50.0,4.0
235,37,120,16.666666666666668,2.4166666666666665,0.6666666666666666,50.083333333333336,8.333333333333334,8.333333333333334,9.0,14.0,9.0,19.0,8.0,31.0,12.0,36.0,42.0,39.0,42.0,43.0,50.0,4.0
236,37,150,8.333333333333334,2.1765833333333333,0.5833333333333334,39.416666666666664,8.333333333333334,0.0,9.0,14.0,9.0,19.0,8.0,31.0,12.0,36.0,42.0,39.0,42.0,43.0,50.0,4.0
237,37,180,8.333333333333334,2.3916666666666666,0.4166666666666667,41.083333333333336,8.333333333333334,0.0,9.0,14.0,9.0,19.0,8.0,31.0,12.0,36.0,42.0,39.0,42.0,43.0,50.0,4.0
238,38,0,95.33333333333333,3.35775,1.0,55.666666666666664,51.416666666666664,43.916666666666664,12.0,14.0,13.0,17.0,17.0,27.0,18.0,37.0,36.0,39.0,42.0,37.0,49.0,2.0
239,38,30,77.08333333333333,3.4916666666666667,0.9166666666666666,49.166666666666664,51.416666666666664,25.666666666666664,12.0,14.0,13.0,17.0,17.0,27.0,18.0,37.0,36.0,39.0,42.0,37.0,49.0,2.0
240,38,60,84.0,3.7849166666666663,1.0,33.583333333333336,51.416666666666664,32.583333333333336,12.0,14.0,13.0,17.0,17.0,27.0,18.0,37.0,36.0,39.0,42.0,37.0,49.0,2.0
241,38,90,69.58333333333333,3.6968333333333336,0.9166666666666666,44.333333333333336,51.416666666666664,18.166666666666664,12.0,14.0,13.0,17.0,17.0,27.0,18.0,37.0,36.0,39.0,42.0,37.0,49.0,2.0
242,38,120,60.916666666666664,3.39475,0.75,40.5,51.416666666666664,9.5,12.0,14.0,13.0,17.0,17.0,27.0,18.0,37.0,36.0,39.0,42.0,37.0,49.0,2.0
243,38,150,45.18181818181818,3.8586666666666667,0.75,30.0,51.416666666666664,-6.234848484848484,12.0,14.0,13.0,17.0,17.0,27.0,18.0,37.0,36.0,39.0,42.0,37.0,49.0,2.0
244,38,180,51.416666666666664,4.1770000000000005,0.5,37.25,51.416666666666664,0.0,12.0,14.0,13.0,17.0,17.0,27.0,18.0,37.0,36.0,39.0,42.0,37.0,49.0,2.0
245,39,0,100.0,1.8949166666666668,0.9166666666666666,45.0,14.25,85.75,12.0,14.0,9.0,22.0,13.0,12.0,18.0,44.0,38.0,42.0,41.0,41.0,56.0,3.0
246,39,30,95.0,2.4585833333333333,1.0,26.166666666666668,14.25,80.75,12.0,14.0,9.0,22.0,13.0,12.0,18.0,44.0,38.0,42.0,41.0,41.0,56.0,3.0
247,39,60,82.58333333333333,2.6168333333333336,1.0,46.25,14.25,68.33333333333333,12.0,14.0,9.0,22.0,13.0,12.0,18.0,44.0,38.0,42.0,41.0,41.0,56.0,3.0
248,39,90,76.83333333333333,2.641083333333333,1.0,40.916666666666664,14.25,62.58333333333333,12.0,14.0,9.0,22.0,13.0,12.0,18.0,44.0,38.0,42.0,41.0,41.0,56.0,3.0
249,39,120,36.5,3.080166666666667,0.8333333333333334,47.0,14.25,22.25,12.0,14.0,9.0,22.0,13.0,12.0,18.0,44.0,38.0,42.0,41.0,41.0,56.0,3.0
250,39,150,17.75,3.10575,0.75,32.25,14.25,3.5,12.0,14.0,9.0,22.0,13.0,12.0,18.0,44.0,38.0,42.0,41.0,41.0,56.0,3.0
251,39,180,14.25,3.38725,0.5,52.916666666666664,14.25,0.0,12.0,14.0,9.0,22.0,13.0,12.0,18.0,44.0,38.0,42.0,41.0,41.0,56.0,3.0
252,40,0,74.41666666666667,3.166916666666667,1.0,26.75,20.583333333333332,53.83333333333334,22.0,16.0,14.0,16.0,12.0,23.0,2.0,32.0,32.0,39.0,45.0,47.0,40.0,4.0
253,40,30,78.41666666666667,3.0364166666666663,1.0,45.083333333333336,20.583333333333332,57.83333333333334,22.0,16.0,14.0,16.0,12.0,23.0,2.0,32.0,32.0,39.0,45.0,47.0,40.0,4.0
254,40,60,73.33333333333333,2.9630833333333335,1.0,49.5,20.583333333333332,52.75,22.0,16.0,14.0,16.0,12.0,23.0,2.0,32.0,32.0,39.0,45.0,47.0,40.0,4.0
255,40,90,49.083333333333336,3.0963333333333334,0.9166666666666666,39.333333333333336,20.583333333333332,28.500000000000004,22.0,16.0,14.0,16.0,12.0,23.0,2.0,32.0,32.0,39.0,45.0,47.0,40.0,4.0
256,40,120,34.416666666666664,3.2140833333333334,0.9166666666666666,34.25,20.583333333333332,13.833333333333332,22.0,16.0,14.0,16.0,12.0,23.0,2.0,32.0,32.0,39.0,45.0,47.0,40.0,4.0
257,40,150,26.083333333333332,2.9917499999999997,0.5833333333333334,51.333333333333336,20.583333333333332,5.5,22.0,16.0,14.0,16.0,12.0,23.0,2.0,32.0,32.0,39.0,45.0,47.0,40.0,4.0
258,40,180,20.583333333333332,2.93725,0.5833333333333334,44.25,20.583333333333332,0.0,22.0,16.0,14.0,16.0,12.0,23.0,2.0,32.0,32.0,39.0,45.0,47.0,40.0,4.0
259,41,0,95.66666666666667,3.5124166666666667,1.0,46.916666666666664,32.333333333333336,63.333333333333336,19.0,19.0,6.0,23.0,12.0,10.0,16.0,41.0,31.0,38.0,35.0,29.0,63.0,5.0
260,41,30,93.0,3.5171666666666668,0.9166666666666666,39.916666666666664,32.333333333333336,60.666666666666664,19.0,19.0,6.0,23.0,12.0,10.0,16.0,41.0,31.0,38.0,35.0,29.0,63.0,5.0
261,41,60,90.0,3.3025,1.0,42.916666666666664,32.333333333333336,57.666666666666664,19.0,19.0,6.0,23.0,12.0,10.0,16.0,41.0,31.0,38.0,35.0,29.0,63.0,5.0
262,41,90,84.58333333333333,3.31625,1.0,34.75,32.333333333333336,52.24999999999999,19.0,19.0,6.0,23.0,12.0,10.0,16.0,41.0,31.0,38.0,35.0,29.0,63.0,5.0
263,41,120,63.333333333333336,3.8689999999999998,0.9166666666666666,55.916666666666664,32.333333333333336,31.0,19.0,19.0,6.0,23.0,12.0,10.0,16.0,41.0,31.0,38.0,35.0,29.0,63.0,5.0
264,41,150,61.75,3.9261666666666666,0.5,34.166666666666664,32.333333333333336,29.416666666666664,19.0,19.0,6.0,23.0,12.0,10.0,16.0,41.0,31.0,38.0,35.0,29.0,63.0,5.0
265,41,180,32.333333333333336,4.62775,0.3333333333333333,35.916666666666664,32.333333333333336,0.0,19.0,19.0,6.0,23.0,12.0,10.0,16.0,41.0,31.0,38.0,35.0,29.0,63.0,5.0
266,42,0,100.0,2.7572500000000004,1.0,54.666666666666664,1.3333333333333333,98.66666666666667,19.0,25.0,12.0,19.0,19.0,13.0,20.0,49.0,31.0,31.0,36.0,32.0,52.0,5.0
267,42,30,94.16666666666667,2.795583333333333,0.9166666666666666,39.333333333333336,1.3333333333333333,92.83333333333334,19.0,25.0,12.0,19.0,19.0,13.0,20.0,49.0,31.0,31.0,36.0,32.0,52.0,5.0
268,42,60,95.33333333333333,3.189666666666666,1.0,46.666666666666664,1.3333333333333333,94.0,19.0,25.0,12.0,19.0,19.0,13.0,20.0,49.0,31.0,31.0,36.0,32.0,52.0,5.0
269,42,90,66.5,2.9566666666666666,0.9166666666666666,35.25,1.3333333333333333,65.16666666666667,19.0,25.0,12.0,19.0,19.0,13.0,20.0,49.0,31.0,31.0,36.0,32.0,52.0,5.0
270,42,120,21.5,3.0695,0.75,42.416666666666664,1.3333333333333333,20.166666666666668,19.0,25.0,12.0,19.0,19.0,13.0,20.0,49.0,31.0,31.0,36.0,32.0,52.0,5.0
271,42,150,10.5,2.779833333333334,0.5,39.333333333333336,1.3333333333333333,9.166666666666666,19.0,25.0,12.0,19.0,19.0,13.0,20.0,49.0,31.0,31.0,36.0,32.0,52.0,5.0
272,42,180,1.3333333333333333,2.9330833333333337,0.5,32.833333333333336,1.3333333333333333,0.0,19.0,25.0,12.0,19.0,19.0,13.0,20.0,49.0,31.0,31.0,36.0,32.0,52.0,5.0
273,43,0,87.83333333333333,3.8054166666666664,0.8333333333333334,41.75,53.166666666666664,34.666666666666664,19.0,18.0,15.0,22.0,22.0,30.0,11.0,47.0,35.0,48.0,42.0,36.0,47.0,4.0
274,43,30,78.45454545454545,3.625916666666667,0.9166666666666666,45.583333333333336,53.166666666666664,25.28787878787879,19.0,18.0,15.0,22.0,22.0,30.0,11.0,47.0,35.0,48.0,42.0,36.0,47.0,4.0
275,43,60,75.33333333333333,3.3835833333333336,1.0,34.333333333333336,53.166666666666664,22.166666666666664,19.0,18.0,15.0,22.0,22.0,30.0,11.0,47.0,35.0,48.0,42.0,36.0,47.0,4.0
276,43,90,79.27272727272727,3.9187499999999997,0.9166666666666666,40.083333333333336,53.166666666666664,26.106060606060602,19.0,18.0,15.0,22.0,22.0,30.0,11.0,47.0,35.0,48.0,42.0,36.0,47.0,4.0
277,43,120,70.66666666666667,3.3145000000000002,0.9166666666666666,56.25,53.166666666666664,17.500000000000007,19.0,18.0,15.0,22.0,22.0,30.0,11.0,47.0,35.0,48.0,42.0,36.0,47.0,4.0
278,43,150,60.5,5.0165,0.8333333333333334,32.75,53.166666666666664,7.333333333333336,19.0,18.0,15.0,22.0,22.0,30.0,11.0,47.0,35.0,48.0,42.0,36.0,47.0,4.0
279,43,180,53.166666666666664,4.0045,0.4166666666666667,39.75,53.166666666666664,0.0,19.0,18.0,15.0,22.0,22.0,30.0,11.0,47.0,35.0,48.0,42.0,36.0,47.0,4.0
280,44,0,81.0,1.64025,1.0,36.333333333333336,17.333333333333332,63.66666666666667,11.0,18.0,8.0,25.0,11.0,17.0,0.0,53.0,38.0,45.0,40.0,50.0,41.0,6.0
281,44,30,84.08333333333333,1.5916666666666668,1.0,40.333333333333336,17.333333333333332,66.75,11.0,18.0,8.0,25.0,11.0,17.0,0.0,53.0,38.0,45.0,40.0,50.0,41.0,6.0
282,44,60,77.58333333333333,1.5901666666666667,1.0,44.083333333333336,17.333333333333332,60.25,11.0,18.0,8.0,25.0,11.0,17.0,0.0,53.0,38.0,45.0,40.0,50.0,41.0,6.0
283,44,90,59.75,1.7670833333333331,1.0,34.333333333333336,17.333333333333332,42.41666666666667,11.0,18.0,8.0,25.0,11.0,17.0,0.0,53.0,38.0,45.0,40.0,50.0,41.0,6.0
284,44,120,34.25,1.7738333333333334,0.8333333333333334,55.75,17.333333333333332,16.916666666666668,11.0,18.0,8.0,25.0,11.0,17.0,0.0,53.0,38.0,45.0,40.0,50.0,41.0,6.0
285,44,150,25.25,1.7880833333333335,0.5833333333333334,32.75,17.333333333333332,7.916666666666668,11.0,18.0,8.0,25.0,11.0,17.0,0.0,53.0,38.0,45.0,40.0,50.0,41.0,6.0
286,44,180,17.333333333333332,1.8441666666666665,0.4166666666666667,46.916666666666664,17.333333333333332,0.0,11.0,18.0,8.0,25.0,11.0,17.0,0.0,53.0,38.0,45.0,40.0,50.0,41.0,6.0
287,45,0,85.41666666666667,3.3970833333333332,1.0,38.5,7.7272727272727275,77.68939393939394,25.0,20.0,20.0,8.0,13.0,8.0,0.0,20.0,18.0,23.0,42.54545454545455,50.0,48.0,1.0
288,45,30,81.25,3.1901666666666664,0.9166666666666666,43.416666666666664,7.7272727272727275,73.52272727272727,25.0,20.0,20.0,8.0,13.0,8.0,0.0,20.0,18.0,23.0,42.54545454545455,50.0,48.0,1.0
289,45,60,88.16666666666667,3.4101666666666666,1.0,41.583333333333336,7.7272727272727275,80.43939393939394,25.0,20.0,20.0,8.0,13.0,8.0,0.0,20.0,18.0,23.0,42.54545454545455,50.0,48.0,1.0
290,45,90,76.25,3.26775,1.0,42.833333333333336,7.7272727272727275,68.52272727272727,25.0,20.0,20.0,8.0,13.0,8.0,0.0,20.0,18.0,23.0,42.54545454545455,50.0,48.0,1.0
291,45,120,20.666666666666668,4.071833333333333,0.6666666666666666,43.416666666666664,7.7272727272727275,12.939393939393941,25.0,20.0,20.0,8.0,13.0,8.0,0.0,20.0,18.0,23.0,42.54545454545455,50.0,48.0,1.0
292,45,150,22.083333333333332,3.7236666666666665,0.5,38.25,7.7272727272727275,14.356060606060606,25.0,20.0,20.0,8.0,13.0,8.0,0.0,20.0,18.0,23.0,42.54545454545455,50.0,48.0,1.0
293,45,180,7.7272727272727275,4.327916666666667,0.5833333333333334,42.5,7.7272727272727275,0.0,25.0,20.0,20.0,8.0,13.0,8.0,0.0,20.0,18.0,23.0,42.54545454545455,50.0,48.0,1.0
294,46,0,82.91666666666667,4.164000000000001,1.0,49.916666666666664,20.166666666666668,62.75,23.0,25.0,20.0,14.0,17.0,21.0,8.0,51.0,32.0,46.0,41.0,28.0,41.0,4.0
295,46,30,89.08333333333333,4.150083333333334,1.0,37.416666666666664,20.166666666666668,68.91666666666666,23.0,25.0,20.0,14.0,17.0,21.0,8.0,51.0,32.0,46.0,41.0,28.0,41.0,4.0
296,46,60,74.0,4.056666666666667,1.0,44.25,20.166666666666668,53.83333333333333,23.0,25.0,20.0,14.0,17.0,21.0,8.0,51.0,32.0,46.0,41.0,28.0,41.0,4.0
297,46,90,66.91666666666667,4.71375,1.0,29.666666666666668,20.166666666666668,46.75,23.0,25.0,20.0,14.0,17.0,21.0,8.0,51.0,32.0,46.0,41.0,28.0,41.0,4.0
298,46,120,34.833333333333336,4.214666666666667,0.6666666666666666,37.5,20.166666666666668,14.666666666666668,23.0,25.0,20.0,14.0,17.0,21.0,8.0,51.0,32.0,46.0,41.0,28.0,41.0,4.0
299,46,150,25.166666666666668,5.04475,0.5833333333333334,42.583333333333336,20.166666666666668,5.0,23.0,25.0,20.0,14.0,17.0,21.0,8.0,51.0,32.0,46.0,41.0,28.0,41.0,4.0
300,46,180,20.166666666666668,4.788083333333334,0.6666666666666666,49.166666666666664,20.166666666666668,0.0,23.0,25.0,20.0,14.0,17.0,21.0,8.0,51.0,32.0,46.0,41.0,28.0,41.0,4.0
301,47,0,100.0,2.22025,1.0,40.25,6.583333333333333,93.41666666666667,12.0,15.0,11.0,13.0,7.0,7.0,0.0,33.0,36.0,35.0,45.0,39.0,37.0,1.0
302,47,30,100.0,2.5443333333333333,1.0,53.0,6.583333333333333,93.41666666666667,12.0,15.0,11.0,13.0,7.0,7.0,0.0,33.0,36.0,35.0,45.0,39.0,37.0,1.0
303,47,60,99.83333333333333,2.7278333333333333,1.0,38.75,6.583333333333333,93.25,12.0,15.0,11.0,13.0,7.0,7.0,0.0,33.0,36.0,35.0,45.0,39.0,37.0,1.0
304,47,90,95.75,2.7880833333333332,1.0,49.333333333333336,6.583333333333333,89.16666666666667,12.0,15.0,11.0,13.0,7.0,7.0,0.0,33.0,36.0,35.0,45.0,39.0,37.0,1.0
305,47,120,36.0,3.8985833333333333,0.8333333333333334,33.083333333333336,6.583333333333333,29.416666666666668,12.0,15.0,11.0,13.0,7.0,7.0,0.0,33.0,36.0,35.0,45.0,39.0,37.0,1.0
306,47,150,10.833333333333334,4.03725,0.5833333333333334,36.083333333333336,6.583333333333333,4.250000000000001,12.0,15.0,11.0,13.0,7.0,7.0,0.0,33.0,36.0,35.0,45.0,39.0,37.0,1.0
307,47,180,6.583333333333333,3.5220000000000002,0.5833333333333334,40.0,6.583333333333333,0.0,12.0,15.0,11.0,13.0,7.0,7.0,0.0,33.0,36.0,35.0,45.0,39.0,37.0,1.0
308,48,0,91.25,2.30525,1.0,37.833333333333336,8.666666666666666,82.58333333333333,12.0,22.0,12.0,18.0,16.0,19.0,14.0,47.0,30.0,36.0,39.0,43.0,42.0,6.0
309,48,30,90.83333333333333,2.4583333333333335,1.0,41.0,8.666666666666666,82.16666666666666,12.0,22.0,12.0,18.0,16.0,19.0,14.0,47.0,30.0,36.0,39.0,43.0,42.0,6.0
310,48,60,85.0,2.488166666666667,0.75,44.833333333333336,8.666666666666666,76.33333333333333,12.0,22.0,12.0,18.0,16.0,19.0,14.0,47.0,30.0,36.0,39.0,43.0,42.0,6.0
311,48,90,68.66666666666667,2.3238333333333334,0.8333333333333334,42.833333333333336,8.666666666666666,60.00000000000001,12.0,22.0,12.0,18.0,16.0,19.0,14.0,47.0,30.0,36.0,39.0,43.0,42.0,6.0
312,48,120,31.666666666666668,2.5989166666666663,0.75,46.666666666666664,8.666666666666666,23.0,12.0,22.0,12.0,18.0,16.0,19.0,14.0,47.0,30.0,36.0,39.0,43.0,42.0,6.0
313,48,150,26.416666666666668,3.0344166666666665,0.6666666666666666,22.416666666666668,8.666666666666666,17.75,12.0,22.0,12.0,18.0,16.0,19.0,14.0,47.0,30.0,36.0,39.0,43.0,42.0,6.0
314,48,180,8.666666666666666,2.93675,0.5,54.916666666666664,8.666666666666666,0.0,12.0,22.0,12.0,18.0,16.0,19.0,14.0,47.0,30.0,36.0,39.0,43.0,42.0,6.0
315,49,0,94.83333333333333,2.4895833333333335,0.9166666666666666,47.916666666666664,6.333333333333333,88.5,4.0,8.0,4.0,15.0,5.0,20.0,10.0,41.0,34.0,48.0,43.0,50.0,57.0,3.0
316,49,30,98.5,2.4817500000000003,1.0,45.0,6.333333333333333,92.16666666666667,4.0,8.0,4.0,15.0,5.0,20.0,10.0,41.0,34.0,48.0,43.0,50.0,57.0,3.0
317,49,60,86.83333333333333,2.796666666666667,0.9166666666666666,38.583333333333336,6.333333333333333,80.5,4.0,8.0,4.0,15.0,5.0,20.0,10.0,41.0,34.0,48.0,43.0,50.0,57.0,3.0
318,49,90,66.58333333333333,4.529166666666667,0.6666666666666666,38.833333333333336,6.333333333333333,60.24999999999999,4.0,8.0,4.0,15.0,5.0,20.0,10.0,41.0,34.0,48.0,43.0,50.0,57.0,3.0
319,49,120,18.666666666666668,3.30475,0.75,44.166666666666664,6.333333333333333,12.333333333333336,4.0,8.0,4.0,15.0,5.0,20.0,10.0,41.0,34.0,48.0,43.0,50.0,57.0,3.0
320,49,150,9.666666666666666,3.1694166666666668,0.5833333333333334,31.083333333333332,6.333333333333333,3.333333333333333,4.0,8.0,4.0,15.0,5.0,20.0,10.0,41.0,34.0,48.0,43.0,50.0,57.0,3.0
321,49,180,6.333333333333333,2.6289166666666666,0.5833333333333334,44.916666666666664,6.333333333333333,0.0,4.0,8.0,4.0,15.0,5.0,20.0,10.0,41.0,34.0,48.0,43.0,50.0,57.0,3.0
322,50,0,90.75,2.7615,1.0,43.333333333333336,30.0,60.75,11.0,13.0,13.0,19.0,12.0,23.0,2.0,21.0,45.0,42.0,50.0,42.0,42.0,5.0
323,50,30,84.33333333333333,3.11425,0.9166666666666666,35.666666666666664,30.0,54.33333333333333,11.0,13.0,13.0,19.0,12.0,23.0,2.0,21.0,45.0,42.0,50.0,42.0,42.0,5.0
324,50,60,77.08333333333333,3.0102499999999996,0.9166666666666666,41.666666666666664,30.0,47.08333333333333,11.0,13.0,13.0,19.0,12.0,23.0,2.0,21.0,45.0,42.0,50.0,42.0,42.0,5.0
325,50,90,58.166666666666664,2.865,0.75,52.416666666666664,30.0,28.166666666666664,11.0,13.0,13.0,19.0,12.0,23.0,2.0,21.0,45.0,42.0,50.0,42.0,42.0,5.0
326,50,120,51.666666666666664,3.0231666666666666,0.6666666666666666,46.833333333333336,30.0,21.666666666666664,11.0,13.0,13.0,19.0,12.0,23.0,2.0,21.0,45.0,42.0,50.0,42.0,42.0,5.0
327,50,150,26.333333333333332,3.3838333333333335,0.5833333333333334,32.0,30.0,-3.666666666666668,11.0,13.0,13.0,19.0,12.0,23.0,2.0,21.0,45.0,42.0,50.0,42.0,42.0,5.0
328,50,180,30.0,3.0879166666666666,0.4166666666666667,38.583333333333336,30.0,0.0,11.0,13.0,13.0,19.0,12.0,23.0,2.0,21.0,45.0,42.0,50.0,42.0,42.0,5.0
329,51,0,100.0,2.615,1.0,36.833333333333336,8.333333333333334,91.66666666666667,7.0,14.0,7.0,4.0,6.0,29.0,0.0,27.0,46.0,37.0,45.0,45.0,31.0,6.0
330,51,30,100.0,2.7731666666666666,1.0,39.75,8.333333333333334,91.66666666666667,7.0,14.0,7.0,4.0,6.0,29.0,0.0,27.0,46.0,37.0,45.0,45.0,31.0,6.0
331,51,60,97.75,2.65325,1.0,40.5,8.333333333333334,89.41666666666667,7.0,14.0,7.0,4.0,6.0,29.0,0.0,27.0,46.0,37.0,45.0,45.0,31.0,6.0
332,51,90,91.75,2.8895,1.0,42.666666666666664,8.333333333333334,83.41666666666667,7.0,14.0,7.0,4.0,6.0,29.0,0.0,27.0,46.0,37.0,45.0,45.0,31.0,6.0
333,51,120,43.166666666666664,2.8266666666666667,0.9166666666666666,38.583333333333336,8.333333333333334,34.83333333333333,7.0,14.0,7.0,4.0,6.0,29.0,0.0,27.0,46.0,37.0,45.0,45.0,31.0,6.0
334,51,150,25.0,2.93975,0.6666666666666666,49.5,8.333333333333334,16.666666666666664,7.0,14.0,7.0,4.0,6.0,29.0,0.0,27.0,46.0,37.0,45.0,45.0,31.0,6.0
335,51,180,8.333333333333334,2.8688333333333333,0.5,42.666666666666664,8.333333333333334,0.0,7.0,14.0,7.0,4.0,6.0,29.0,0.0,27.0,46.0,37.0,45.0,45.0,31.0,6.0
336,54,0,95.08333333333333,4.59675,1.0,29.916666666666668,42.166666666666664,52.916666666666664,16.0,17.0,8.0,11.0,12.0,25.0,8.0,26.0,30.0,47.0,40.0,46.0,45.0,5.0
337,54,30,95.91666666666667,4.367583333333333,1.0,52.083333333333336,42.166666666666664,53.75000000000001,16.0,17.0,8.0,11.0,12.0,25.0,8.0,26.0,30.0,47.0,40.0,46.0,45.0,5.0
338,54,60,89.58333333333333,4.122833333333333,1.0,39.166666666666664,42.166666666666664,47.416666666666664,16.0,17.0,8.0,11.0,12.0,25.0,8.0,26.0,30.0,47.0,40.0,46.0,45.0,5.0
339,54,90,83.91666666666667,4.608333333333333,1.0,43.583333333333336,42.166666666666664,41.75000000000001,16.0,17.0,8.0,11.0,12.0,25.0,8.0,26.0,30.0,47.0,40.0,46.0,45.0,5.0
340,54,120,65.08333333333333,4.245166666666667,1.0,45.083333333333336,42.166666666666664,22.916666666666664,16.0,17.0,8.0,11.0,12.0,25.0,8.0,26.0,30.0,47.0,40.0,46.0,45.0,5.0
341,54,150,49.666666666666664,4.779,0.9166666666666666,35.833333333333336,42.166666666666664,7.5,16.0,17.0,8.0,11.0,12.0,25.0,8.0,26.0,30.0,47.0,40.0,46.0,45.0,5.0
342,54,180,42.166666666666664,4.497166666666667,0.6666666666666666,44.833333333333336,42.166666666666664,0.0,16.0,17.0,8.0,11.0,12.0,25.0,8.0,26.0,30.0,47.0,40.0,46.0,45.0,5.0
343,55,0,79.91666666666667,2.626583333333333,1.0,47.0,27.0,52.91666666666667,19.0,17.0,12.0,16.0,16.0,24.0,4.0,37.0,31.0,45.0,35.0,38.0,40.0,4.0
344,55,30,80.83333333333333,2.5970833333333334,1.0,41.416666666666664,27.0,53.83333333333333,19.0,17.0,12.0,16.0,16.0,24.0,4.0,37.0,31.0,45.0,35.0,38.0,40.0,4.0
345,55,60,70.58333333333333,2.4079166666666665,1.0,42.916666666666664,27.0,43.58333333333333,19.0,17.0,12.0,16.0,16.0,24.0,4.0,37.0,31.0,45.0,35.0,38.0,40.0,4.0
346,55,90,62.083333333333336,2.55625,0.8333333333333334,34.333333333333336,27.0,35.083333333333336,19.0,17.0,12.0,16.0,16.0,24.0,4.0,37.0,31.0,45.0,35.0,38.0,40.0,4.0
347,55,120,42.833333333333336,2.5196666666666667,0.75,40.916666666666664,27.0,15.833333333333336,19.0,17.0,12.0,16.0,16.0,24.0,4.0,37.0,31.0,45.0,35.0,38.0,40.0,4.0
348,55,150,27.166666666666668,3.208833333333333,0.5833333333333334,43.166666666666664,27.0,0.16666666666666785,19.0,17.0,12.0,16.0,16.0,24.0,4.0,37.0,31.0,45.0,35.0,38.0,40.0,4.0
349,55,180,27.0,2.7423333333333333,0.6666666666666666,40.75,27.0,0.0,19.0,17.0,12.0,16.0,16.0,24.0,4.0,37.0,31.0,45.0,35.0,38.0,40.0,4.0
350,56,0,97.58333333333333,3.1024999999999996,1.0,34.666666666666664,24.583333333333332,73.0,10.0,13.0,3.0,13.0,5.0,27.0,5.0,28.363636363636363,41.0,25.0,48.0,53.0,25.0,2.0
351,56,30,94.66666666666667,3.1645833333333333,1.0,53.916666666666664,24.583333333333332,70.08333333333334,10.0,13.0,3.0,13.0,5.0,27.0,5.0,28.363636363636363,41.0,25.0,48.0,53.0,25.0,2.0
352,56,60,91.41666666666667,3.03675,1.0,29.25,24.583333333333332,66.83333333333334,10.0,13.0,3.0,13.0,5.0,27.0,5.0,28.363636363636363,41.0,25.0,48.0,53.0,25.0,2.0
353,56,90,72.0,2.724083333333333,1.0,54.833333333333336,24.583333333333332,47.41666666666667,10.0,13.0,3.0,13.0,5.0,27.0,5.0,28.363636363636363,41.0,25.0,48.0,53.0,25.0,2.0
354,56,120,45.666666666666664,3.248583333333333,0.8333333333333334,36.25,24.583333333333332,21.083333333333332,10.0,13.0,3.0,13.0,5.0,27.0,5.0,28.363636363636363,41.0,25.0,48.0,53.0,25.0,2.0
355,56,150,34.166666666666664,3.219416666666667,0.6666666666666666,38.666666666666664,24.583333333333332,9.583333333333332,10.0,13.0,3.0,13.0,5.0,27.0,5.0,28.363636363636363,41.0,25.0,48.0,53.0,25.0,2.0
356,56,180,24.583333333333332,3.1523333333333334,0.5,42.916666666666664,24.583333333333332,0.0,10.0,13.0,3.0,13.0,5.0,27.0,5.0,28.363636363636363,41.0,25.0,48.0,53.0,25.0,2.0
357,57,0,75.83333333333333,2.42825,1.0,45.5,40.416666666666664,35.416666666666664,7.0,15.0,11.0,18.0,8.0,22.0,6.0,28.0,48.0,49.0,50.0,49.0,36.0,5.0
358,57,30,78.25,2.237,1.0,32.75,40.416666666666664,37.833333333333336,7.0,15.0,11.0,18.0,8.0,22.0,6.0,28.0,48.0,49.0,50.0,49.0,36.0,5.0
359,57,60,69.08333333333333,2.3165,0.9166666666666666,47.333333333333336,40.416666666666664,28.666666666666664,7.0,15.0,11.0,18.0,8.0,22.0,6.0,28.0,48.0,49.0,50.0,49.0,36.0,5.0
360,57,90,66.41666666666667,2.57125,0.9166666666666666,44.25,40.416666666666664,26.000000000000007,7.0,15.0,11.0,18.0,8.0,22.0,6.0,28.0,48.0,49.0,50.0,49.0,36.0,5.0
361,57,120,43.666666666666664,2.7891666666666666,0.9166666666666666,38.5,40.416666666666664,3.25,7.0,15.0,11.0,18.0,8.0,22.0,6.0,28.0,48.0,49.0,50.0,49.0,36.0,5.0
362,57,150,37.166666666666664,2.84475,0.75,46.0,40.416666666666664,-3.25,7.0,15.0,11.0,18.0,8.0,22.0,6.0,28.0,48.0,49.0,50.0,49.0,36.0,5.0
363,57,180,40.416666666666664,2.89925,0.5,36.166666666666664,40.416666666666664,0.0,7.0,15.0,11.0,18.0,8.0,22.0,6.0,28.0,48.0,49.0,50.0,49.0,36.0,5.0
364,58,0,95.91666666666667,2.4350833333333335,1.0,39.25,12.0,83.91666666666667,3.0,8.0,5.0,17.0,6.0,31.0,3.0,28.0,54.0,43.0,46.0,44.0,32.0,10.0
365,58,30,93.41666666666667,2.68275,0.9166666666666666,35.916666666666664,12.0,81.41666666666667,3.0,8.0,5.0,17.0,6.0,31.0,3.0,28.0,54.0,43.0,46.0,44.0,32.0,10.0
366,58,60,93.91666666666667,2.84925,1.0,26.0,12.0,81.91666666666667,3.0,8.0,5.0,17.0,6.0,31.0,3.0,28.0,54.0,43.0,46.0,44.0,32.0,10.0
367,58,90,79.66666666666667,2.856666666666667,0.9166666666666666,55.333333333333336,12.0,67.66666666666667,3.0,8.0,5.0,17.0,6.0,31.0,3.0,28.0,54.0,43.0,46.0,44.0,32.0,10.0
368,58,120,37.083333333333336,3.217416666666667,0.8333333333333334,36.5,12.0,25.083333333333336,3.0,8.0,5.0,17.0,6.0,31.0,3.0,28.0,54.0,43.0,46.0,44.0,32.0,10.0
369,58,150,14.0,2.983,0.5833333333333334,49.333333333333336,12.0,2.0,3.0,8.0,5.0,17.0,6.0,31.0,3.0,28.0,54.0,43.0,46.0,44.0,32.0,10.0
370,58,180,12.0,2.968666666666667,0.5833333333333334,48.166666666666664,12.0,0.0,3.0,8.0,5.0,17.0,6.0,31.0,3.0,28.0,54.0,43.0,46.0,44.0,32.0,10.0
371,59,0,77.16666666666667,0.8953333333333333,1.0,50.583333333333336,27.833333333333332,49.33333333333334,13.0,18.0,7.0,24.0,12.0,29.0,24.0,34.0,35.0,40.0,43.0,46.0,45.0,5.0
372,59,30,73.83333333333333,0.8659166666666667,0.9166666666666666,40.333333333333336,27.833333333333332,46.0,13.0,18.0,7.0,24.0,12.0,29.0,24.0,34.0,35.0,40.0,43.0,46.0,45.0,5.0
373,59,60,65.83333333333333,1.0149166666666667,0.6666666666666666,39.75,27.833333333333332,38.0,13.0,18.0,7.0,24.0,12.0,29.0,24.0,34.0,35.0,40.0,43.0,46.0,45.0,5.0
374,59,90,64.75,1.04325,1.0,29.25,27.833333333333332,36.91666666666667,13.0,18.0,7.0,24.0,12.0,29.0,24.0,34.0,35.0,40.0,43.0,46.0,45.0,5.0
375,59,120,43.583333333333336,1.0708333333333333,0.5833333333333334,36.666666666666664,27.833333333333332,15.750000000000004,13.0,18.0,7.0,24.0,12.0,29.0,24.0,34.0,35.0,40.0,43.0,46.0,45.0,5.0
376,59,150,20.833333333333332,0.934,0.4166666666666667,49.083333333333336,27.833333333333332,-7.0,13.0,18.0,7.0,24.0,12.0,29.0,24.0,34.0,35.0,40.0,43.0,46.0,45.0,5.0
377,59,180,27.833333333333332,1.1565833333333333,0.3333333333333333,44.833333333333336,27.833333333333332,0.0,13.0,18.0,7.0,24.0,12.0,29.0,24.0,34.0,35.0,40.0,43.0,46.0,45.0,5.0
378,60,0,98.0,4.307083333333334,1.0,44.916666666666664,10.916666666666666,87.08333333333333,9.0,16.0,11.0,18.0,8.0,31.0,0.0,14.0,44.0,37.0,45.0,59.0,27.0,5.0
379,60,30,95.81818181818181,4.93925,0.9166666666666666,43.083333333333336,10.916666666666666,84.90151515151514,9.0,16.0,11.0,18.0,8.0,31.0,0.0,14.0,44.0,37.0,45.0,59.0,27.0,5.0
380,60,60,92.58333333333333,4.325916666666667,0.9166666666666666,45.0,10.916666666666666,81.66666666666666,9.0,16.0,11.0,18.0,8.0,31.0,0.0,14.0,44.0,37.0,45.0,59.0,27.0,5.0
381,60,90,75.5,4.269083333333334,0.9166666666666666,38.916666666666664,10.916666666666666,64.58333333333333,9.0,16.0,11.0,18.0,8.0,31.0,0.0,14.0,44.0,37.0,45.0,59.0,27.0,5.0
382,60,120,40.666666666666664,4.336166666666666,0.6666666666666666,35.916666666666664,10.916666666666666,29.75,9.0,16.0,11.0,18.0,8.0,31.0,0.0,14.0,44.0,37.0,45.0,59.0,27.0,5.0
383,60,150,33.583333333333336,4.448833333333334,0.75,34.916666666666664,10.916666666666666,22.66666666666667,9.0,16.0,11.0,18.0,8.0,31.0,0.0,14.0,44.0,37.0,45.0,59.0,27.0,5.0
384,60,180,10.916666666666666,4.434083333333334,0.5833333333333334,47.75,10.916666666666666,0.0,9.0,16.0,11.0,18.0,8.0,31.0,0.0,14.0,44.0,37.0,45.0,59.0,27.0,5.0
385,61,0,83.0,3.980833333333333,1.0,42.75,34.416666666666664,48.583333333333336,8.0,15.0,10.0,19.0,5.0,16.0,2.0,40.0,44.0,37.0,49.0,46.0,35.888888888888886,5.0
386,61,30,88.08333333333333,3.38275,1.0,39.416666666666664,34.416666666666664,53.666666666666664,8.0,15.0,10.0,19.0,5.0,16.0,2.0,40.0,44.0,37.0,49.0,46.0,35.888888888888886,5.0
387,61,60,77.66666666666667,2.839916666666667,1.0,40.333333333333336,34.416666666666664,43.25000000000001,8.0,15.0,10.0,19.0,5.0,16.0,2.0,40.0,44.0,37.0,49.0,46.0,35.888888888888886,5.0
388,61,90,74.91666666666667,2.7438333333333333,1.0,42.0,34.416666666666664,40.50000000000001,8.0,15.0,10.0,19.0,5.0,16.0,2.0,40.0,44.0,37.0,49.0,46.0,35.888888888888886,5.0
389,61,120,47.166666666666664,3.14125,0.8333333333333334,36.833333333333336,34.416666666666664,12.75,8.0,15.0,10.0,19.0,5.0,16.0,2.0,40.0,44.0,37.0,49.0,46.0,35.888888888888886,5.0
390,61,150,32.333333333333336,3.970083333333333,0.75,37.916666666666664,34.416666666666664,-2.0833333333333286,8.0,15.0,10.0,19.0,5.0,16.0,2.0,40.0,44.0,37.0,49.0,46.0,35.888888888888886,5.0
391,61,180,34.416666666666664,3.3009166666666663,0.5,51.25,34.416666666666664,0.0,8.0,15.0,10.0,19.0,5.0,16.0,2.0,40.0,44.0,37.0,49.0,46.0,35.888888888888886,5.0
392,62,0,97.58333333333333,3.4278333333333335,0.9166666666666666,44.333333333333336,3.8333333333333335,93.75,24.0,19.0,21.0,6.0,20.0,20.0,13.0,43.0,31.0,38.0,45.0,34.0,46.0,7.0
393,62,30,92.16666666666667,3.3326666666666664,1.0,50.166666666666664,3.8333333333333335,88.33333333333334,24.0,19.0,21.0,6.0,20.0,20.0,13.0,43.0,31.0,38.0,45.0,34.0,46.0,7.0
394,62,60,84.83333333333333,3.70025,1.0,36.666666666666664,3.8333333333333335,81.0,24.0,19.0,21.0,6.0,20.0,20.0,13.0,43.0,31.0,38.0,45.0,34.0,46.0,7.0
395,62,90,62.833333333333336,3.7025,0.75,38.333333333333336,3.8333333333333335,59.0,24.0,19.0,21.0,6.0,20.0,20.0,13.0,43.0,31.0,38.0,45.0,34.0,46.0,7.0
396,62,120,29.5,4.839583333333334,0.75,38.166666666666664,3.8333333333333335,25.666666666666668,24.0,19.0,21.0,6.0,20.0,20.0,13.0,43.0,31.0,38.0,45.0,34.0,46.0,7.0
397,62,150,14.5,4.058833333333333,0.5,35.833333333333336,3.8333333333333335,10.666666666666666,24.0,19.0,21.0,6.0,20.0,20.0,13.0,43.0,31.0,38.0,45.0,34.0,46.0,7.0
398,62,180,3.8333333333333335,3.5005833333333336,0.75,47.0,3.8333333333333335,0.0,24.0,19.0,21.0,6.0,20.0,20.0,13.0,43.0,31.0,38.0,45.0,34.0,46.0,7.0
399,63,0,99.08333333333333,3.6718333333333333,1.0,39.0,10.416666666666666,88.66666666666666,19.0,24.0,14.0,26.0,16.0,11.0,24.0,53.0,19.0,40.0,45.0,36.0,58.0,2.0
400,63,30,97.66666666666667,3.9932499999999997,1.0,41.25,10.416666666666666,87.25,19.0,24.0,14.0,26.0,16.0,11.0,24.0,53.0,19.0,40.0,45.0,36.0,58.0,2.0
401,63,60,93.91666666666667,3.7815833333333333,1.0,52.75,10.416666666666666,83.5,19.0,24.0,14.0,26.0,16.0,11.0,24.0,53.0,19.0,40.0,45.0,36.0,58.0,2.0
402,63,90,76.66666666666667,4.678999999999999,1.0,46.416666666666664,10.416666666666666,66.25,19.0,24.0,14.0,26.0,16.0,11.0,24.0,53.0,19.0,40.0,45.0,36.0,58.0,2.0
403,63,120,27.416666666666668,4.926666666666667,0.8333333333333334,38.333333333333336,10.416666666666666,17.0,19.0,24.0,14.0,26.0,16.0,11.0,24.0,53.0,19.0,40.0,45.0,36.0,58.0,2.0
404,63,150,10.083333333333334,5.185666666666667,0.9166666666666666,36.166666666666664,10.416666666666666,-0.33333333333333215,19.0,24.0,14.0,26.0,16.0,11.0,24.0,53.0,19.0,40.0,45.0,36.0,58.0,2.0
405,63,180,10.416666666666666,4.713166666666667,0.25,36.583333333333336,10.416666666666666,0.0,19.0,24.0,14.0,26.0,16.0,11.0,24.0,53.0,19.0,40.0,45.0,36.0,58.0,2.0
406,64,0,96.58333333333333,3.5124166666666667,1.0,49.583333333333336,12.0,84.58333333333333,18.0,18.0,16.0,16.0,13.0,9.0,21.0,53.0,24.0,35.0,42.0,30.0,68.0,1.0
407,64,30,96.58333333333333,3.53,1.0,43.75,12.0,84.58333333333333,18.0,18.0,16.0,16.0,13.0,9.0,21.0,53.0,24.0,35.0,42.0,30.0,68.0,1.0
408,64,60,95.83333333333333,4.00675,0.8333333333333334,34.833333333333336,12.0,83.83333333333333,18.0,18.0,16.0,16.0,13.0,9.0,21.0,53.0,24.0,35.0,42.0,30.0,68.0,1.0
409,64,90,60.25,4.16925,0.9166666666666666,38.333333333333336,12.0,48.25,18.0,18.0,16.0,16.0,13.0,9.0,21.0,53.0,24.0,35.0,42.0,30.0,68.0,1.0
410,64,120,44.75,4.974166666666666,0.8333333333333334,35.083333333333336,12.0,32.75,18.0,18.0,16.0,16.0,13.0,9.0,21.0,53.0,24.0,35.0,42.0,30.0,68.0,1.0
411,64,150,17.416666666666668,4.148583333333334,0.6666666666666666,43.583333333333336,12.0,5.416666666666668,18.0,18.0,16.0,16.0,13.0,9.0,21.0,53.0,24.0,35.0,42.0,30.0,68.0,1.0
412,64,180,12.0,4.584666666666666,0.25,45.333333333333336,12.0,0.0,18.0,18.0,16.0,16.0,13.0,9.0,21.0,53.0,24.0,35.0,42.0,30.0,68.0,1.0
413,65,0,85.16666666666667,1.9573333333333334,1.0,49.583333333333336,30.363636363636363,54.80303030303031,9.0,6.0,9.0,11.0,2.0,33.0,1.0,24.0,46.0,45.0,47.0,55.0,23.0,2.0
414,65,30,81.58333333333333,2.183333333333333,0.9166666666666666,44.75,30.363636363636363,51.21969696969697,9.0,6.0,9.0,11.0,2.0,33.0,1.0,24.0,46.0,45.0,47.0,55.0,23.0,2.0
415,65,60,77.33333333333333,2.0716666666666668,0.9166666666666666,41.666666666666664,30.363636363636363,46.96969696969697,9.0,6.0,9.0,11.0,2.0,33.0,1.0,24.0,46.0,45.0,47.0,55.0,23.0,2.0
416,65,90,64.33333333333333,2.3664166666666664,0.9166666666666666,33.166666666666664,30.363636363636363,33.96969696969697,9.0,6.0,9.0,11.0,2.0,33.0,1.0,24.0,46.0,45.0,47.0,55.0,23.0,2.0
417,65,120,32.25,2.529166666666667,0.75,44.333333333333336,30.363636363636363,1.8863636363636367,9.0,6.0,9.0,11.0,2.0,33.0,1.0,24.0,46.0,45.0,47.0,55.0,23.0,2.0
418,65,150,29.75,2.7266666666666666,0.5,45.833333333333336,30.363636363636363,-0.6136363636363633,9.0,6.0,9.0,11.0,2.0,33.0,1.0,24.0,46.0,45.0,47.0,55.0,23.0,2.0
419,65,180,30.363636363636363,3.1681666666666666,0.6666666666666666,31.166666666666668,30.363636363636363,0.0,9.0,6.0,9.0,11.0,2.0,33.0,1.0,24.0,46.0,45.0,47.0,55.0,23.0,2.0
420,66,0,97.91666666666667,2.89325,0.9166666666666666,40.5,16.333333333333332,81.58333333333334,9.0,17.0,14.0,11.0,9.0,15.0,8.0,39.0,29.0,39.0,35.0,41.0,53.0,10.0
421,66,30,89.91666666666667,3.1514166666666665,0.9166666666666666,36.166666666666664,16.333333333333332,73.58333333333334,9.0,17.0,14.0,11.0,9.0,15.0,8.0,39.0,29.0,39.0,35.0,41.0,53.0,10.0
422,66,60,85.41666666666667,2.6500833333333333,1.0,42.166666666666664,16.333333333333332,69.08333333333334,9.0,17.0,14.0,11.0,9.0,15.0,8.0,39.0,29.0,39.0,35.0,41.0,53.0,10.0
423,66,90,68.33333333333333,2.661166666666667,1.0,42.333333333333336,16.333333333333332,52.0,9.0,17.0,14.0,11.0,9.0,15.0,8.0,39.0,29.0,39.0,35.0,41.0,53.0,10.0
424,66,120,30.583333333333332,2.556,0.75,36.333333333333336,16.333333333333332,14.25,9.0,17.0,14.0,11.0,9.0,15.0,8.0,39.0,29.0,39.0,35.0,41.0,53.0,10.0
425,66,150,23.166666666666668,2.8049999999999997,0.4166666666666667,49.75,16.333333333333332,6.833333333333336,9.0,17.0,14.0,11.0,9.0,15.0,8.0,39.0,29.0,39.0,35.0,41.0,53.0,10.0
426,66,180,16.333333333333332,3.2138333333333335,0.5833333333333334,43.25,16.333333333333332,0.0,9.0,17.0,14.0,11.0,9.0,15.0,8.0,39.0,29.0,39.0,35.0,41.0,53.0,10.0
427,69,0,91.16666666666667,2.368,1.0,37.833333333333336,18.083333333333332,73.08333333333334,19.0,22.0,17.0,24.0,18.0,7.0,8.0,36.0,17.0,45.0,42.0,45.0,52.0,1.0
428,69,30,90.75,2.31975,1.0,54.833333333333336,18.083333333333332,72.66666666666667,19.0,22.0,17.0,24.0,18.0,7.0,8.0,36.0,17.0,45.0,42.0,45.0,52.0,1.0
429,69,60,80.25,2.559416666666667,1.0,38.916666666666664,18.083333333333332,62.16666666666667,19.0,22.0,17.0,24.0,18.0,7.0,8.0,36.0,17.0,45.0,42.0,45.0,52.0,1.0
430,69,90,71.0,2.645,1.0,43.833333333333336,18.083333333333332,52.91666666666667,19.0,22.0,17.0,24.0,18.0,7.0,8.0,36.0,17.0,45.0,42.0,45.0,52.0,1.0
431,69,120,48.5,3.329916666666667,0.75,28.0,18.083333333333332,30.416666666666668,19.0,22.0,17.0,24.0,18.0,7.0,8.0,36.0,17.0,45.0,42.0,45.0,52.0,1.0
432,69,150,22.75,3.4625,0.75,41.083333333333336,18.083333333333332,4.666666666666668,19.0,22.0,17.0,24.0,18.0,7.0,8.0,36.0,17.0,45.0,42.0,45.0,52.0,1.0
433,69,180,18.083333333333332,3.0740833333333337,0.4166666666666667,46.0,18.083333333333332,0.0,19.0,22.0,17.0,24.0,18.0,7.0,8.0,36.0,17.0,45.0,42.0,45.0,52.0,1.0
434,70,0,97.25,3.8295,1.0,27.083333333333332,1.75,95.5,24.0,15.0,10.0,17.0,11.0,6.0,1.0,42.0,30.0,42.0,45.0,42.0,44.0,3.0
435,70,30,95.5,3.7270000000000003,1.0,53.5,1.75,93.75,24.0,15.0,10.0,17.0,11.0,6.0,1.0,42.0,30.0,42.0,45.0,42.0,44.0,3.0
436,70,60,86.16666666666667,3.6943333333333332,0.8333333333333334,41.083333333333336,1.75,84.41666666666667,24.0,15.0,10.0,17.0,11.0,6.0,1.0,42.0,30.0,42.0,45.0,42.0,44.0,3.0
437,70,90,64.16666666666667,4.1925,0.75,37.166666666666664,1.75,62.41666666666667,24.0,15.0,10.0,17.0,11.0,6.0,1.0,42.0,30.0,42.0,45.0,42.0,44.0,3.0
438,70,120,5.909090909090909,4.589083333333334,0.6666666666666666,46.083333333333336,1.75,4.159090909090909,24.0,15.0,10.0,17.0,11.0,6.0,1.0,42.0,30.0,42.0,45.0,42.0,44.0,3.0
439,70,150,2.4166666666666665,4.491833333333333,0.4166666666666667,42.75,1.75,0.6666666666666665,24.0,15.0,10.0,17.0,11.0,6.0,1.0,42.0,30.0,42.0,45.0,42.0,44.0,3.0
440,70,180,1.75,4.331333333333333,0.4166666666666667,42.833333333333336,1.75,0.0,24.0,15.0,10.0,17.0,11.0,6.0,1.0,42.0,30.0,42.0,45.0,42.0,44.0,3.0
441,71,0,96.83333333333333,2.3828333333333336,1.0,48.333333333333336,31.25,65.58333333333333,7.0,13.0,14.0,18.0,10.0,25.0,6.0,33.0,45.81818181818182,33.0,47.0,42.0,45.0,8.0
442,71,30,91.9090909090909,3.4287500000000004,0.9166666666666666,38.333333333333336,31.25,60.65909090909091,7.0,13.0,14.0,18.0,10.0,25.0,6.0,33.0,45.81818181818182,33.0,47.0,42.0,45.0,8.0
443,71,60,84.75,2.5233333333333334,1.0,50.333333333333336,31.25,53.5,7.0,13.0,14.0,18.0,10.0,25.0,6.0,33.0,45.81818181818182,33.0,47.0,42.0,45.0,8.0
444,71,90,68.54545454545455,3.2010833333333335,0.8333333333333334,41.833333333333336,31.25,37.29545454545455,7.0,13.0,14.0,18.0,10.0,25.0,6.0,33.0,45.81818181818182,33.0,47.0,42.0,45.0,8.0
445,71,120,48.583333333333336,3.2045833333333333,0.8333333333333334,29.75,31.25,17.333333333333336,7.0,13.0,14.0,18.0,10.0,25.0,6.0,33.0,45.81818181818182,33.0,47.0,42.0,45.0,8.0
446,71,150,39.166666666666664,3.607666666666667,0.75,40.416666666666664,31.25,7.916666666666664,7.0,13.0,14.0,18.0,10.0,25.0,6.0,33.0,45.81818181818182,33.0,47.0,42.0,45.0,8.0
447,71,180,31.25,3.278,0.5833333333333334,41.5,31.25,0.0,7.0,13.0,14.0,18.0,10.0,25.0,6.0,33.0,45.81818181818182,33.0,47.0,42.0,45.0,8.0
448,72,0,91.75,4.179749999999999,1.0,36.25,17.916666666666668,73.83333333333333,14.0,20.0,12.0,20.0,12.0,17.0,11.0,52.0,31.0,48.0,47.0,36.0,47.0,5.0
449,72,30,85.58333333333333,3.29725,1.0,35.666666666666664,17.916666666666668,67.66666666666666,14.0,20.0,12.0,20.0,12.0,17.0,11.0,52.0,31.0,48.0,47.0,36.0,47.0,5.0
450,72,60,83.0,3.8158333333333334,1.0,34.416666666666664,17.916666666666668,65.08333333333333,14.0,20.0,12.0,20.0,12.0,17.0,11.0,52.0,31.0,48.0,47.0,36.0,47.0,5.0
451,72,90,56.0,3.9934166666666666,1.0,31.083333333333332,17.916666666666668,38.08333333333333,14.0,20.0,12.0,20.0,12.0,17.0,11.0,52.0,31.0,48.0,47.0,36.0,47.0,5.0
452,72,120,27.416666666666668,4.461666666666667,0.8333333333333334,47.833333333333336,17.916666666666668,9.5,14.0,20.0,12.0,20.0,12.0,17.0,11.0,52.0,31.0,48.0,47.0,36.0,47.0,5.0
453,72,150,22.083333333333332,4.1049999999999995,0.8333333333333334,58.5,17.916666666666668,4.166666666666664,14.0,20.0,12.0,20.0,12.0,17.0,11.0,52.0,31.0,48.0,47.0,36.0,47.0,5.0
454,72,180,17.916666666666668,4.595166666666667,0.8333333333333334,46.75,17.916666666666668,0.0,14.0,20.0,12.0,20.0,12.0,17.0,11.0,52.0,31.0,48.0,47.0,36.0,47.0,5.0
455,73,0,99.83333333333333,3.4432500000000004,1.0,47.333333333333336,18.083333333333332,81.75,7.0,9.0,16.0,18.0,10.0,20.0,2.0,14.0,37.0,36.0,40.0,43.0,27.0,6.0
456,73,30,93.83333333333333,3.9614999999999996,1.0,36.25,18.083333333333332,75.75,7.0,9.0,16.0,18.0,10.0,20.0,2.0,14.0,37.0,36.0,40.0,43.0,27.0,6.0
457,73,60,96.25,3.485416666666667,1.0,43.083333333333336,18.083333333333332,78.16666666666667,7.0,9.0,16.0,18.0,10.0,20.0,2.0,14.0,37.0,36.0,40.0,43.0,27.0,6.0
458,73,90,76.16666666666667,3.4459166666666667,0.9166666666666666,41.166666666666664,18.083333333333332,58.08333333333334,7.0,9.0,16.0,18.0,10.0,20.0,2.0,14.0,37.0,36.0,40.0,43.0,27.0,6.0
459,73,120,37.25,3.56025,0.75,37.75,18.083333333333332,19.166666666666668,7.0,9.0,16.0,18.0,10.0,20.0,2.0,14.0,37.0,36.0,40.0,43.0,27.0,6.0
460,73,150,21.5,3.9875833333333333,0.5,42.583333333333336,18.083333333333332,3.416666666666668,7.0,9.0,16.0,18.0,10.0,20.0,2.0,14.0,37.0,36.0,40.0,43.0,27.0,6.0
461,73,180,18.083333333333332,3.879,0.5833333333333334,42.333333333333336,18.083333333333332,0.0,7.0,9.0,16.0,18.0,10.0,20.0,2.0,14.0,37.0,36.0,40.0,43.0,27.0,6.0
462,74,0,85.16666666666667,3.3510000000000004,1.0,45.166666666666664,18.75,66.41666666666667,16.0,16.0,10.0,15.0,17.0,16.0,1.0,40.0,30.0,39.0,42.0,34.0,54.0,2.0
463,74,30,82.16666666666667,4.066333333333334,1.0,47.25,18.75,63.41666666666667,16.0,16.0,10.0,15.0,17.0,16.0,1.0,40.0,30.0,39.0,42.0,34.0,54.0,2.0
464,74,60,71.75,3.7319166666666668,1.0,54.75,18.75,53.0,16.0,16.0,10.0,15.0,17.0,16.0,1.0,40.0,30.0,39.0,42.0,34.0,54.0,2.0
465,74,90,69.72727272727273,4.318416666666667,0.9166666666666666,31.75,18.75,50.977272727272734,16.0,16.0,10.0,15.0,17.0,16.0,1.0,40.0,30.0,39.0,42.0,34.0,54.0,2.0
466,74,120,47.666666666666664,4.388833333333333,0.9166666666666666,26.583333333333332,18.75,28.916666666666664,16.0,16.0,10.0,15.0,17.0,16.0,1.0,40.0,30.0,39.0,42.0,34.0,54.0,2.0
467,74,150,20.75,4.043916666666667,0.9166666666666666,46.166666666666664,18.75,2.0,16.0,16.0,10.0,15.0,17.0,16.0,1.0,40.0,30.0,39.0,42.0,34.0,54.0,2.0
468,74,180,18.75,4.646,0.5,38.833333333333336,18.75,0.0,16.0,16.0,10.0,15.0,17.0,16.0,1.0,40.0,30.0,39.0,42.0,34.0,54.0,2.0
469,75,0,98.41666666666667,2.857666666666667,1.0,35.833333333333336,5.916666666666667,92.5,28.0,22.0,10.0,7.0,19.0,7.0,17.0,53.0,21.0,33.0,37.0,32.0,69.0,2.0
470,75,30,96.58333333333333,2.8013333333333335,1.0,43.666666666666664,5.916666666666667,90.66666666666666,28.0,22.0,10.0,7.0,19.0,7.0,17.0,53.0,21.0,33.0,37.0,32.0,69.0,2.0
471,75,60,94.16666666666667,2.972,1.0,34.833333333333336,5.916666666666667,88.25,28.0,22.0,10.0,7.0,19.0,7.0,17.0,53.0,21.0,33.0,37.0,32.0,69.0,2.0
472,75,90,70.16666666666667,3.1581666666666663,0.8333333333333334,46.666666666666664,5.916666666666667,64.25,28.0,22.0,10.0,7.0,19.0,7.0,17.0,53.0,21.0,33.0,37.0,32.0,69.0,2.0
473,75,120,20.333333333333332,2.8363333333333336,0.8333333333333334,41.166666666666664,5.916666666666667,14.416666666666664,28.0,22.0,10.0,7.0,19.0,7.0,17.0,53.0,21.0,33.0,37.0,32.0,69.0,2.0
474,75,150,6.666666666666667,2.998416666666667,0.75,41.833333333333336,5.916666666666667,0.75,28.0,22.0,10.0,7.0,19.0,7.0,17.0,53.0,21.0,33.0,37.0,32.0,69.0,2.0
475,75,180,5.916666666666667,2.855333333333333,0.5833333333333334,46.5,5.916666666666667,0.0,28.0,22.0,10.0,7.0,19.0,7.0,17.0,53.0,21.0,33.0,37.0,32.0,69.0,2.0
476,76,0,100.0,2.2093333333333334,1.0,53.083333333333336,14.0,86.0,23.0,20.0,10.0,15.0,11.0,20.0,6.0,25.0,17.0,42.0,36.0,46.0,62.0,3.0
477,76,30,100.0,2.2548333333333335,1.0,39.666666666666664,14.0,86.0,23.0,20.0,10.0,15.0,11.0,20.0,6.0,25.0,17.0,42.0,36.0,46.0,62.0,3.0
478,76,60,100.0,2.2273333333333336,1.0,44.5,14.0,86.0,23.0,20.0,10.0,15.0,11.0,20.0,6.0,25.0,17.0,42.0,36.0,46.0,62.0,3.0
479,76,90,96.33333333333333,2.3779166666666667,1.0,36.833333333333336,14.0,82.33333333333333,23.0,20.0,10.0,15.0,11.0,20.0,6.0,25.0,17.0,42.0,36.0,46.0,62.0,3.0
480,76,120,65.5,3.362,1.0,29.25,14.0,51.5,23.0,20.0,10.0,15.0,11.0,20.0,6.0,25.0,17.0,42.0,36.0,46.0,62.0,3.0
481,76,150,39.083333333333336,3.671583333333333,0.8333333333333334,46.166666666666664,14.0,25.083333333333336,23.0,20.0,10.0,15.0,11.0,20.0,6.0,25.0,17.0,42.0,36.0,46.0,62.0,3.0
482,76,180,14.0,3.765833333333333,0.5,41.0,14.0,0.0,23.0,20.0,10.0,15.0,11.0,20.0,6.0,25.0,17.0,42.0,36.0,46.0,62.0,3.0
483,77,0,65.25,3.1644166666666664,0.9166666666666666,37.666666666666664,34.5,30.75,17.0,15.0,12.0,16.0,15.0,14.0,9.0,39.0,27.0,30.0,40.0,40.0,41.0,5.0
484,77,30,64.5,3.0431666666666666,1.0,44.416666666666664,34.5,30.0,17.0,15.0,12.0,16.0,15.0,14.0,9.0,39.0,27.0,30.0,40.0,40.0,41.0,5.0
485,77,60,59.583333333333336,3.198083333333333,1.0,44.583333333333336,34.5,25.083333333333336,17.0,15.0,12.0,16.0,15.0,14.0,9.0,39.0,27.0,30.0,40.0,40.0,41.0,5.0
486,77,90,53.833333333333336,3.248666666666667,1.0,37.75,34.5,19.333333333333336,17.0,15.0,12.0,16.0,15.0,14.0,9.0,39.0,27.0,30.0,40.0,40.0,41.0,5.0
487,77,120,38.5,3.1023333333333336,1.0,43.666666666666664,34.5,4.0,17.0,15.0,12.0,16.0,15.0,14.0,9.0,39.0,27.0,30.0,40.0,40.0,41.0,5.0
488,77,150,38.083333333333336,3.3820833333333336,0.6666666666666666,36.416666666666664,34.5,3.5833333333333357,17.0,15.0,12.0,16.0,15.0,14.0,9.0,39.0,27.0,30.0,40.0,40.0,41.0,5.0
489,77,180,34.5,3.1629166666666664,0.8333333333333334,46.0,34.5,0.0,17.0,15.0,12.0,16.0,15.0,14.0,9.0,39.0,27.0,30.0,40.0,40.0,41.0,5.0
490,78,0,83.83333333333333,3.55775,1.0,38.416666666666664,29.666666666666668,54.16666666666666,8.0,15.0,6.0,22.0,5.0,26.0,1.0,25.0,43.0,36.0,43.0,54.0,26.0,8.0
491,78,30,82.25,3.6847499999999997,1.0,39.5,29.666666666666668,52.58333333333333,8.0,15.0,6.0,22.0,5.0,26.0,1.0,25.0,43.0,36.0,43.0,54.0,26.0,8.0
492,78,60,75.66666666666667,3.11725,0.8333333333333334,54.5,29.666666666666668,46.0,8.0,15.0,6.0,22.0,5.0,26.0,1.0,25.0,43.0,36.0,43.0,54.0,26.0,8.0
493,78,90,64.5,4.055000000000001,1.0,45.25,29.666666666666668,34.83333333333333,8.0,15.0,6.0,22.0,5.0,26.0,1.0,25.0,43.0,36.0,43.0,54.0,26.0,8.0
494,78,120,44.833333333333336,4.250666666666667,0.6666666666666666,24.833333333333332,29.666666666666668,15.166666666666668,8.0,15.0,6.0,22.0,5.0,26.0,1.0,25.0,43.0,36.0,43.0,54.0,26.0,8.0
495,78,150,26.75,4.3445833333333335,0.5,37.5,29.666666666666668,-2.916666666666668,8.0,15.0,6.0,22.0,5.0,26.0,1.0,25.0,43.0,36.0,43.0,54.0,26.0,8.0
496,78,180,29.666666666666668,3.4873333333333334,0.5,50.5,29.666666666666668,0.0,8.0,15.0,6.0,22.0,5.0,26.0,1.0,25.0,43.0,36.0,43.0,54.0,26.0,8.0
497,81,0,96.66666666666667,3.6165833333333333,1.0,34.916666666666664,14.833333333333334,81.83333333333334,13.0,10.0,8.0,7.0,3.333333333333333,13.0,7.0,45.0,27.0,44.0,45.0,27.0,43.0,4.0
498,81,30,98.58333333333333,3.294916666666667,1.0,37.5,14.833333333333334,83.75,13.0,10.0,8.0,7.0,3.333333333333333,13.0,7.0,45.0,27.0,44.0,45.0,27.0,43.0,4.0
499,81,60,96.33333333333333,3.27875,1.0,49.916666666666664,14.833333333333334,81.5,13.0,10.0,8.0,7.0,3.333333333333333,13.0,7.0,45.0,27.0,44.0,45.0,27.0,43.0,4.0
500,81,90,87.83333333333333,3.2121666666666666,1.0,51.583333333333336,14.833333333333334,73.0,13.0,10.0,8.0,7.0,3.333333333333333,13.0,7.0,45.0,27.0,44.0,45.0,27.0,43.0,4.0
501,81,120,61.583333333333336,3.378833333333333,1.0,38.75,14.833333333333334,46.75,13.0,10.0,8.0,7.0,3.333333333333333,13.0,7.0,45.0,27.0,44.0,45.0,27.0,43.0,4.0
502,81,150,44.666666666666664,3.954,0.8333333333333334,27.75,14.833333333333334,29.83333333333333,13.0,10.0,8.0,7.0,3.333333333333333,13.0,7.0,45.0,27.0,44.0,45.0,27.0,43.0,4.0
503,81,180,14.833333333333334,3.4324999999999997,0.5,50.083333333333336,14.833333333333334,0.0,13.0,10.0,8.0,7.0,3.333333333333333,13.0,7.0,45.0,27.0,44.0,45.0,27.0,43.0,4.0
504,82,0,89.75,1.813583333333333,1.0,49.666666666666664,25.5,64.25,10.0,8.0,8.0,15.0,11.0,19.0,0.0,26.0,45.0,42.0,47.0,42.0,39.0,4.0
505,82,30,91.08333333333333,1.9356666666666669,1.0,43.416666666666664,25.5,65.58333333333333,10.0,8.0,8.0,15.0,11.0,19.0,0.0,26.0,45.0,42.0,47.0,42.0,39.0,4.0
506,82,60,89.5,1.7640833333333334,1.0,34.166666666666664,25.5,64.0,10.0,8.0,8.0,15.0,11.0,19.0,0.0,26.0,45.0,42.0,47.0,42.0,39.0,4.0
507,82,90,85.58333333333333,2.0355833333333333,1.0,45.416666666666664,25.5,60.08333333333333,10.0,8.0,8.0,15.0,11.0,19.0,0.0,26.0,45.0,42.0,47.0,42.0,39.0,4.0
508,82,120,60.75,2.2750833333333333,1.0,37.5,25.5,35.25,10.0,8.0,8.0,15.0,11.0,19.0,0.0,26.0,45.0,42.0,47.0,42.0,39.0,4.0
509,82,150,42.5,2.3069166666666665,0.75,43.0,25.5,17.0,10.0,8.0,8.0,15.0,11.0,19.0,0.0,26.0,45.0,42.0,47.0,42.0,39.0,4.0
510,82,180,25.5,2.5667500000000003,0.5833333333333334,37.333333333333336,25.5,0.0,10.0,8.0,8.0,15.0,11.0,19.0,0.0,26.0,45.0,42.0,47.0,42.0,39.0,4.0
511,83,0,97.0,3.3029166666666665,1.0,46.166666666666664,12.166666666666666,84.83333333333333,12.0,12.0,11.0,18.0,8.0,22.0,8.0,39.0,34.0,46.0,42.0,36.0,52.0,2.0
512,83,30,96.33333333333333,3.2075,1.0,44.0,12.166666666666666,84.16666666666666,12.0,12.0,11.0,18.0,8.0,22.0,8.0,39.0,34.0,46.0,42.0,36.0,52.0,2.0
513,83,60,95.75,3.231833333333333,1.0,38.916666666666664,12.166666666666666,83.58333333333333,12.0,12.0,11.0,18.0,8.0,22.0,8.0,39.0,34.0,46.0,42.0,36.0,52.0,2.0
514,83,90,75.16666666666667,3.5226666666666664,1.0,29.25,12.166666666666666,63.00000000000001,12.0,12.0,11.0,18.0,8.0,22.0,8.0,39.0,34.0,46.0,42.0,36.0,52.0,2.0
515,83,120,31.666666666666668,3.4916666666666667,0.9166666666666666,45.333333333333336,12.166666666666666,19.5,12.0,12.0,11.0,18.0,8.0,22.0,8.0,39.0,34.0,46.0,42.0,36.0,52.0,2.0
516,83,150,22.75,3.9137500000000003,0.75,35.75,12.166666666666666,10.583333333333334,12.0,12.0,11.0,18.0,8.0,22.0,8.0,39.0,34.0,46.0,42.0,36.0,52.0,2.0
517,83,180,12.166666666666666,4.06175,0.5833333333333334,51.083333333333336,12.166666666666666,0.0,12.0,12.0,11.0,18.0,8.0,22.0,8.0,39.0,34.0,46.0,42.0,36.0,52.0,2.0
518,84,0,99.91666666666667,3.323916666666667,1.0,32.583333333333336,13.833333333333334,86.08333333333334,4.0,12.0,11.0,14.0,2.0,31.0,0.0,15.0,47.0,31.0,48.0,60.0,22.0,6.0
519,84,30,99.91666666666667,3.1785833333333335,1.0,41.0,13.833333333333334,86.08333333333334,4.0,12.0,11.0,14.0,2.0,31.0,0.0,15.0,47.0,31.0,48.0,60.0,22.0,6.0
520,84,60,100.0,2.8783333333333334,1.0,44.5,13.833333333333334,86.16666666666667,4.0,12.0,11.0,14.0,2.0,31.0,0.0,15.0,47.0,31.0,48.0,60.0,22.0,6.0
521,84,90,91.66666666666667,3.3022500000000004,1.0,42.0,13.833333333333334,77.83333333333334,4.0,12.0,11.0,14.0,2.0,31.0,0.0,15.0,47.0,31.0,48.0,60.0,22.0,6.0
522,84,120,42.0,3.2948333333333335,0.75,52.75,13.833333333333334,28.166666666666664,4.0,12.0,11.0,14.0,2.0,31.0,0.0,15.0,47.0,31.0,48.0,60.0,22.0,6.0
523,84,150,29.75,3.3842499999999998,0.75,34.833333333333336,13.833333333333334,15.916666666666666,4.0,12.0,11.0,14.0,2.0,31.0,0.0,15.0,47.0,31.0,48.0,60.0,22.0,6.0
524,84,180,13.833333333333334,3.3509166666666665,0.25,42.833333333333336,13.833333333333334,0.0,4.0,12.0,11.0,14.0,2.0,31.0,0.0,15.0,47.0,31.0,48.0,60.0,22.0,6.0
525,85,0,100.0,2.2960833333333333,1.0,44.333333333333336,0.6666666666666666,99.33333333333333,25.0,12.0,10.0,13.0,16.0,26.0,5.0,28.0,38.0,43.0,40.0,45.0,53.0,4.0
526,85,30,100.0,2.42625,0.8333333333333334,44.166666666666664,0.6666666666666666,99.33333333333333,25.0,12.0,10.0,13.0,16.0,26.0,5.0,28.0,38.0,43.0,40.0,45.0,53.0,4.0
527,85,60,87.25,2.3843333333333336,1.0,39.0,0.6666666666666666,86.58333333333333,25.0,12.0,10.0,13.0,16.0,26.0,5.0,28.0,38.0,43.0,40.0,45.0,53.0,4.0
528,85,90,56.0,2.6805833333333333,0.75,39.666666666666664,0.6666666666666666,55.333333333333336,25.0,12.0,10.0,13.0,16.0,26.0,5.0,28.0,38.0,43.0,40.0,45.0,53.0,4.0
529,85,120,1.5,2.4539166666666667,0.5833333333333334,54.833333333333336,0.6666666666666666,0.8333333333333334,25.0,12.0,10.0,13.0,16.0,26.0,5.0,28.0,38.0,43.0,40.0,45.0,53.0,4.0
530,85,150,0.0,2.474666666666667,0.6666666666666666,45.583333333333336,0.6666666666666666,-0.6666666666666666,25.0,12.0,10.0,13.0,16.0,26.0,5.0,28.0,38.0,43.0,40.0,45.0,53.0,4.0
531,85,180,0.6666666666666666,2.7778333333333336,0.3333333333333333,22.916666666666668,0.6666666666666666,0.0,25.0,12.0,10.0,13.0,16.0,26.0,5.0,28.0,38.0,43.0,40.0,45.0,53.0,4.0
532,86,0,82.41666666666667,2.887083333333333,0.9166666666666666,34.0,19.5,62.91666666666667,6.0,8.0,4.0,16.0,7.0,28.0,3.0,23.0,43.0,44.0,49.0,41.0,33.0,5.0
533,86,30,84.41666666666667,2.8448333333333333,1.0,40.416666666666664,19.5,64.91666666666667,6.0,8.0,4.0,16.0,7.0,28.0,3.0,23.0,43.0,44.0,49.0,41.0,33.0,5.0
534,86,60,68.66666666666667,2.495083333333333,1.0,40.083333333333336,19.5,49.16666666666667,6.0,8.0,4.0,16.0,7.0,28.0,3.0,23.0,43.0,44.0,49.0,41.0,33.0,5.0
535,86,90,56.166666666666664,2.45975,1.0,44.583333333333336,19.5,36.666666666666664,6.0,8.0,4.0,16.0,7.0,28.0,3.0,23.0,43.0,44.0,49.0,41.0,33.0,5.0
536,86,120,37.0,2.6296666666666666,0.9166666666666666,39.75,19.5,17.5,6.0,8.0,4.0,16.0,7.0,28.0,3.0,23.0,43.0,44.0,49.0,41.0,33.0,5.0
537,86,150,18.25,3.3090833333333336,0.6666666666666666,40.083333333333336,19.5,-1.25,6.0,8.0,4.0,16.0,7.0,28.0,3.0,23.0,43.0,44.0,49.0,41.0,33.0,5.0
538,86,180,19.5,2.7007499999999998,0.6666666666666666,51.583333333333336,19.5,0.0,6.0,8.0,4.0,16.0,7.0,28.0,3.0,23.0,43.0,44.0,49.0,41.0,33.0,5.0
539,87,0,82.91666666666667,2.7465833333333336,1.0,28.416666666666668,45.5,37.41666666666667,12.0,16.0,14.0,16.0,12.0,26.0,12.0,43.0,39.0,35.0,39.0,42.0,47.0,5.0
540,87,30,77.25,2.5930833333333334,1.0,45.5,45.5,31.75,12.0,16.0,14.0,16.0,12.0,26.0,12.0,43.0,39.0,35.0,39.0,42.0,47.0,5.0
541,87,60,80.08333333333333,2.4951666666666665,1.0,41.083333333333336,45.5,34.58333333333333,12.0,16.0,14.0,16.0,12.0,26.0,12.0,43.0,39.0,35.0,39.0,42.0,47.0,5.0
542,87,90,73.91666666666667,2.5615,1.0,48.333333333333336,45.5,28.41666666666667,12.0,16.0,14.0,16.0,12.0,26.0,12.0,43.0,39.0,35.0,39.0,42.0,47.0,5.0
543,87,120,65.58333333333333,2.5755,1.0,40.333333333333336,45.5,20.08333333333333,12.0,16.0,14.0,16.0,12.0,26.0,12.0,43.0,39.0,35.0,39.0,42.0,47.0,5.0
544,87,150,45.166666666666664,2.8534166666666665,0.6666666666666666,40.666666666666664,45.5,-0.3333333333333357,12.0,16.0,14.0,16.0,12.0,26.0,12.0,43.0,39.0,35.0,39.0,42.0,47.0,5.0
545,87,180,45.5,2.8197500000000004,0.4166666666666667,46.166666666666664,45.5,0.0,12.0,16.0,14.0,16.0,12.0,26.0,12.0,43.0,39.0,35.0,39.0,42.0,47.0,5.0
546,88,0,96.16666666666667,2.9136666666666664,1.0,38.416666666666664,29.666666666666668,66.5,23.0,19.0,8.0,19.0,20.0,24.0,11.0,60.0,33.0,54.0,39.0,34.0,56.0,3.0
547,88,30,93.25,3.1750000000000003,1.0,28.583333333333332,29.666666666666668,63.58333333333333,23.0,19.0,8.0,19.0,20.0,24.0,11.0,60.0,33.0,54.0,39.0,34.0,56.0,3.0
548,88,60,90.63636363636364,4.831583333333334,0.9166666666666666,48.0,29.666666666666668,60.96969696969697,23.0,19.0,8.0,19.0,20.0,24.0,11.0,60.0,33.0,54.0,39.0,34.0,56.0,3.0
549,88,90,84.5,3.1438333333333333,1.0,46.416666666666664,29.666666666666668,54.83333333333333,23.0,19.0,8.0,19.0,20.0,24.0,11.0,60.0,33.0,54.0,39.0,34.0,56.0,3.0
550,88,120,53.666666666666664,3.355333333333333,0.8333333333333334,43.083333333333336,29.666666666666668,23.999999999999996,23.0,19.0,8.0,19.0,20.0,24.0,11.0,60.0,33.0,54.0,39.0,34.0,56.0,3.0
551,88,150,28.0,2.748416666666667,0.6666666666666666,39.25,29.666666666666668,-1.6666666666666679,23.0,19.0,8.0,19.0,20.0,24.0,11.0,60.0,33.0,54.0,39.0,34.0,56.0,3.0
552,88,180,29.666666666666668,2.7768333333333337,0.4166666666666667,46.75,29.666666666666668,0.0,23.0,19.0,8.0,19.0,20.0,24.0,11.0,60.0,33.0,54.0,39.0,34.0,56.0,3.0
553,89,0,90.66666666666667,5.093333333333334,1.0,34.0,6.75,83.91666666666667,19.0,18.0,10.0,15.0,10.0,24.0,10.0,30.0,29.0,41.0,49.0,48.0,41.0,5.0
554,89,30,86.58333333333333,5.454166666666667,1.0,50.25,6.75,79.83333333333333,19.0,18.0,10.0,15.0,10.0,24.0,10.0,30.0,29.0,41.0,49.0,48.0,41.0,5.0
555,89,60,77.54545454545455,6.009916666666666,0.8333333333333334,33.833333333333336,6.75,70.79545454545455,19.0,18.0,10.0,15.0,10.0,24.0,10.0,30.0,29.0,41.0,49.0,48.0,41.0,5.0
556,89,90,57.6,6.601583333333333,0.5,42.666666666666664,6.75,50.85,19.0,18.0,10.0,15.0,10.0,24.0,10.0,30.0,29.0,41.0,49.0,48.0,41.0,5.0
557,89,120,12.083333333333334,5.110833333333333,0.4166666666666667,40.583333333333336,6.75,5.333333333333334,19.0,18.0,10.0,15.0,10.0,24.0,10.0,30.0,29.0,41.0,49.0,48.0,41.0,5.0
558,89,150,8.833333333333334,5.541583333333333,0.3333333333333333,48.0,6.75,2.083333333333334,19.0,18.0,10.0,15.0,10.0,24.0,10.0,30.0,29.0,41.0,49.0,48.0,41.0,5.0
559,89,180,6.75,5.133333333333334,0.4166666666666667,41.166666666666664,6.75,0.0,19.0,18.0,10.0,15.0,10.0,24.0,10.0,30.0,29.0,41.0,49.0,48.0,41.0,5.0
560,90,0,98.5,3.2543333333333333,1.0,46.583333333333336,19.916666666666668,78.58333333333333,21.0,10.0,3.0,10.0,8.0,23.0,3.0,18.0,33.0,40.0,41.0,48.0,34.0,0.0
561,90,30,98.81818181818181,4.374666666666667,0.9166666666666666,32.333333333333336,19.916666666666668,78.90151515151514,21.0,10.0,3.0,10.0,8.0,23.0,3.0,18.0,33.0,40.0,41.0,48.0,34.0,0.0
562,90,60,93.66666666666667,2.9477499999999996,1.0,57.25,19.916666666666668,73.75,21.0,10.0,3.0,10.0,8.0,23.0,3.0,18.0,33.0,40.0,41.0,48.0,34.0,0.0
563,90,90,78.0,3.062583333333333,1.0,45.833333333333336,19.916666666666668,58.08333333333333,21.0,10.0,3.0,10.0,8.0,23.0,3.0,18.0,33.0,40.0,41.0,48.0,34.0,0.0
564,90,120,39.0,3.4774999999999996,0.8333333333333334,37.75,19.916666666666668,19.083333333333332,21.0,10.0,3.0,10.0,8.0,23.0,3.0,18.0,33.0,40.0,41.0,48.0,34.0,0.0
565,90,150,23.25,3.5578333333333334,0.5,39.333333333333336,19.916666666666668,3.333333333333332,21.0,10.0,3.0,10.0,8.0,23.0,3.0,18.0,33.0,40.0,41.0,48.0,34.0,0.0
566,90,180,19.916666666666668,3.5210000000000004,0.6666666666666666,31.416666666666668,19.916666666666668,0.0,21.0,10.0,3.0,10.0,8.0,23.0,3.0,18.0,33.0,40.0,41.0,48.0,34.0,0.0
567,92,0,70.16666666666667,2.3425,1.0,43.333333333333336,31.916666666666668,38.25,19.0,18.0,11.0,12.0,11.0,16.0,6.0,30.0,33.0,36.0,38.0,33.0,38.0,7.0
568,92,30,72.41666666666667,2.405,0.9166666666666666,32.25,31.916666666666668,40.5,19.0,18.0,11.0,12.0,11.0,16.0,6.0,30.0,33.0,36.0,38.0,33.0,38.0,7.0
569,92,60,72.0,2.3740833333333335,1.0,46.416666666666664,31.916666666666668,40.08333333333333,19.0,18.0,11.0,12.0,11.0,16.0,6.0,30.0,33.0,36.0,38.0,33.0,38.0,7.0
570,92,90,60.0,2.116,1.0,36.75,31.916666666666668,28.083333333333332,19.0,18.0,11.0,12.0,11.0,16.0,6.0,30.0,33.0,36.0,38.0,33.0,38.0,7.0
571,92,120,44.666666666666664,2.50775,0.8333333333333334,40.083333333333336,31.916666666666668,12.749999999999996,19.0,18.0,11.0,12.0,11.0,16.0,6.0,30.0,33.0,36.0,38.0,33.0,38.0,7.0
572,92,150,30.583333333333332,2.5669999999999997,0.75,49.833333333333336,31.916666666666668,-1.3333333333333357,19.0,18.0,11.0,12.0,11.0,16.0,6.0,30.0,33.0,36.0,38.0,33.0,38.0,7.0
573,92,180,31.916666666666668,3.0209999999999995,0.5,41.833333333333336,31.916666666666668,0.0,19.0,18.0,11.0,12.0,11.0,16.0,6.0,30.0,33.0,36.0,38.0,33.0,38.0,7.0
574,93,0,91.33333333333333,3.2445,1.0,39.333333333333336,18.75,72.58333333333333,9.0,13.0,2.0,7.0,2.0,14.0,1.0,26.0,44.0,37.0,46.0,58.0,34.0,10.0
575,93,30,92.08333333333333,3.5995833333333334,1.0,34.833333333333336,18.75,73.33333333333333,9.0,13.0,2.0,7.0,2.0,14.0,1.0,26.0,44.0,37.0,46.0,58.0,34.0,10.0
576,93,60,84.25,3.204083333333333,1.0,46.75,18.75,65.5,9.0,13.0,2.0,7.0,2.0,14.0,1.0,26.0,44.0,37.0,46.0,58.0,34.0,10.0
577,93,90,81.25,3.2090833333333335,1.0,42.0,18.75,62.5,9.0,13.0,2.0,7.0,2.0,14.0,1.0,26.0,44.0,37.0,46.0,58.0,34.0,10.0
578,93,120,38.583333333333336,3.4981666666666666,0.8333333333333334,50.583333333333336,18.75,19.833333333333336,9.0,13.0,2.0,7.0,2.0,14.0,1.0,26.0,44.0,37.0,46.0,58.0,34.0,10.0
579,93,150,15.25,3.6276666666666664,0.5833333333333334,41.583333333333336,18.75,-3.5,9.0,13.0,2.0,7.0,2.0,14.0,1.0,26.0,44.0,37.0,46.0,58.0,34.0,10.0
580,93,180,18.75,3.67475,0.5,35.416666666666664,18.75,0.0,9.0,13.0,2.0,7.0,2.0,14.0,1.0,26.0,44.0,37.0,46.0,58.0,34.0,10.0
581,94,0,88.41666666666667,4.13575,1.0,51.333333333333336,24.333333333333332,64.08333333333334,10.0,12.0,11.0,18.0,7.0,29.0,3.0,23.0,37.0,41.0,42.54545454545455,48.0,38.0,3.0
582,94,30,89.16666666666667,3.8540833333333335,1.0,44.833333333333336,24.333333333333332,64.83333333333334,10.0,12.0,11.0,18.0,7.0,29.0,3.0,23.0,37.0,41.0,42.54545454545455,48.0,38.0,3.0
583,94,60,85.16666666666667,4.05325,0.8333333333333334,39.916666666666664,24.333333333333332,60.83333333333334,10.0,12.0,11.0,18.0,7.0,29.0,3.0,23.0,37.0,41.0,42.54545454545455,48.0,38.0,3.0
584,94,90,70.83333333333333,3.6506666666666665,0.9166666666666666,46.333333333333336,24.333333333333332,46.5,10.0,12.0,11.0,18.0,7.0,29.0,3.0,23.0,37.0,41.0,42.54545454545455,48.0,38.0,3.0
585,94,120,50.0,4.65575,0.6666666666666666,33.5,24.333333333333332,25.666666666666668,10.0,12.0,11.0,18.0,7.0,29.0,3.0,23.0,37.0,41.0,42.54545454545455,48.0,38.0,3.0
586,94,150,30.75,4.247333333333333,0.5,43.5,24.333333333333332,6.416666666666668,10.0,12.0,11.0,18.0,7.0,29.0,3.0,23.0,37.0,41.0,42.54545454545455,48.0,38.0,3.0
587,94,180,24.333333333333332,4.45475,0.3333333333333333,31.083333333333332,24.333333333333332,0.0,10.0,12.0,11.0,18.0,7.0,29.0,3.0,23.0,37.0,41.0,42.54545454545455,48.0,38.0,3.0
588,96,0,100.0,2.3211666666666666,1.0,44.416666666666664,26.416666666666668,73.58333333333333,18.0,17.0,5.0,13.0,4.0,26.0,0.0,26.0,34.0,44.0,47.0,55.0,31.0,2.0
589,96,30,96.0,2.1850833333333335,1.0,43.25,26.416666666666668,69.58333333333333,18.0,17.0,5.0,13.0,4.0,26.0,0.0,26.0,34.0,44.0,47.0,55.0,31.0,2.0
590,96,60,81.33333333333333,2.5433333333333334,1.0,42.25,26.416666666666668,54.91666666666666,18.0,17.0,5.0,13.0,4.0,26.0,0.0,26.0,34.0,44.0,47.0,55.0,31.0,2.0
591,96,90,71.08333333333333,2.5345833333333334,1.0,46.0,26.416666666666668,44.66666666666666,18.0,17.0,5.0,13.0,4.0,26.0,0.0,26.0,34.0,44.0,47.0,55.0,31.0,2.0
592,96,120,44.5,3.0545000000000004,0.9166666666666666,42.25,26.416666666666668,18.083333333333332,18.0,17.0,5.0,13.0,4.0,26.0,0.0,26.0,34.0,44.0,47.0,55.0,31.0,2.0
593,96,150,37.25,3.0515000000000003,0.6666666666666666,26.583333333333332,26.416666666666668,10.833333333333332,18.0,17.0,5.0,13.0,4.0,26.0,0.0,26.0,34.0,44.0,47.0,55.0,31.0,2.0
594,96,180,26.416666666666668,2.9010833333333337,0.5833333333333334,45.75,26.416666666666668,0.0,18.0,17.0,5.0,13.0,4.0,26.0,0.0,26.0,34.0,44.0,47.0,55.0,31.0,2.0
595,97,0,86.25,4.372583333333333,0.9166666666666666,33.75,18.272727272727273,67.97727272727272,19.0,20.0,18.0,16.0,11.0,9.0,20.0,46.90909090909091,21.0,37.0,40.0,32.72727272727273,70.0,0.0
596,97,30,84.75,4.886583333333333,0.9166666666666666,41.75,18.272727272727273,66.47727272727272,19.0,20.0,18.0,16.0,11.0,9.0,20.0,46.90909090909091,21.0,37.0,40.0,32.72727272727273,70.0,0.0
597,97,60,78.83333333333333,4.893,1.0,31.0,18.272727272727273,60.560606060606055,19.0,20.0,18.0,16.0,11.0,9.0,20.0,46.90909090909091,21.0,37.0,40.0,32.72727272727273,70.0,0.0
598,97,90,76.08333333333333,4.8300833333333335,0.9166666666666666,42.083333333333336,18.272727272727273,57.810606060606055,19.0,20.0,18.0,16.0,11.0,9.0,20.0,46.90909090909091,21.0,37.0,40.0,32.72727272727273,70.0,0.0
599,97,120,56.54545454545455,5.9214166666666666,0.75,50.416666666666664,18.272727272727273,38.27272727272727,19.0,20.0,18.0,16.0,11.0,9.0,20.0,46.90909090909091,21.0,37.0,40.0,32.72727272727273,70.0,0.0
600,97,150,30.416666666666668,4.7324166666666665,0.75,45.666666666666664,18.272727272727273,12.143939393939394,19.0,20.0,18.0,16.0,11.0,9.0,20.0,46.90909090909091,21.0,37.0,40.0,32.72727272727273,70.0,0.0
601,97,180,18.272727272727273,5.125916666666667,0.5833333333333334,45.833333333333336,18.272727272727273,0.0,19.0,20.0,18.0,16.0,11.0,9.0,20.0,46.90909090909091,21.0,37.0,40.0,32.72727272727273,70.0,0.0
602,98,0,86.58333333333333,3.487833333333333,1.0,40.25,37.90909090909091,48.67424242424242,13.0,9.0,8.0,12.0,7.0,32.0,0.0,16.0,46.0,43.0,46.0,48.0,33.0,4.0
603,98,30,81.25,3.6015,1.0,55.166666666666664,37.90909090909091,43.34090909090909,13.0,9.0,8.0,12.0,7.0,32.0,0.0,16.0,46.0,43.0,46.0,48.0,33.0,4.0
604,98,60,76.66666666666667,3.3230833333333334,1.0,33.0,37.90909090909091,38.757575757575765,13.0,9.0,8.0,12.0,7.0,32.0,0.0,16.0,46.0,43.0,46.0,48.0,33.0,4.0
605,98,90,69.0,3.7266666666666666,1.0,46.833333333333336,37.90909090909091,31.090909090909093,13.0,9.0,8.0,12.0,7.0,32.0,0.0,16.0,46.0,43.0,46.0,48.0,33.0,4.0
606,98,120,57.27272727272727,4.051083333333334,0.8333333333333334,25.833333333333332,37.90909090909091,19.363636363636367,13.0,9.0,8.0,12.0,7.0,32.0,0.0,16.0,46.0,43.0,46.0,48.0,33.0,4.0
607,98,150,50.25,3.6309166666666663,0.5,41.166666666666664,37.90909090909091,12.340909090909093,13.0,9.0,8.0,12.0,7.0,32.0,0.0,16.0,46.0,43.0,46.0,48.0,33.0,4.0
608,98,180,37.90909090909091,4.285,0.4166666666666667,48.25,37.90909090909091,0.0,13.0,9.0,8.0,12.0,7.0,32.0,0.0,16.0,46.0,43.0,46.0,48.0,33.0,4.0
609,99,0,86.83333333333333,2.0781666666666667,1.0,44.25,26.666666666666668,60.16666666666666,16.0,15.0,10.0,18.0,7.0,20.0,2.0,26.0,32.0,43.0,43.0,51.0,48.0,4.0
610,99,30,85.25,2.1910833333333333,1.0,28.25,26.666666666666668,58.58333333333333,16.0,15.0,10.0,18.0,7.0,20.0,2.0,26.0,32.0,43.0,43.0,51.0,48.0,4.0
611,99,60,83.0,1.9421666666666668,1.0,38.416666666666664,26.666666666666668,56.33333333333333,16.0,15.0,10.0,18.0,7.0,20.0,2.0,26.0,32.0,43.0,43.0,51.0,48.0,4.0
