,subID,subtlety,slider,RT,accuracy,trial_ind,rating180,diff_from_180,aq_social_skill,aq_attn_switch,aq_img,aq_attn_to_det,aq_comm,panas_pos,panas_neg,ffi_neuroticism,ffi_extraversion,ffi_openness,ffi_agreeableness,ffi_conscientiousness,ucla,friend_num
0,1,0,100.0,2.747,1.0,29.0,16.5,83.5,8.0,16.0,8.0,20.0,12.0,16.0,9.0,43.0,38.0,29.0,42.0,46.0,58.0,1.0
1,1,30,100.0,2.617,1.0,67.0,16.5,83.5,8.0,16.0,8.0,20.0,12.0,16.0,9.0,43.0,38.0,29.0,42.0,46.0,58.0,1.0
2,1,60,100.0,2.8925,1.0,36.0,16.5,83.5,8.0,16.0,8.0,20.0,12.0,16.0,9.0,43.0,38.0,29.0,42.0,46.0,58.0,1.0
3,1,90,80.0,3.1384999999999996,1.0,42.0,16.5,63.5,8.0,16.0,8.0,20.0,12.0,16.0,9.0,43.0,38.0,29.0,42.0,46.0,58.0,1.0
4,1,120,45.0,4.086,1.0,28.5,16.5,28.5,8.0,16.0,8.0,20.0,12.0,16.0,9.0,43.0,38.0,29.0,42.0,46.0,58.0,1.0
5,1,150,14.5,3.3434999999999997,1.0,46.5,16.5,-2.0,8.0,16.0,8.0,20.0,12.0,16.0,9.0,43.0,38.0,29.0,42.0,46.0,58.0,1.0
6,1,180,16.5,3.12,0.0,52.0,16.5,0.0,8.0,16.0,8.0,20.0,12.0,16.0,9.0,43.0,38.0,29.0,42.0,46.0,58.0,1.0
7,2,0,100.0,2.8625,1.0,41.0,0.0,100.0,7.0,14.0,9.0,21.0,12.0,26.0,5.0,28.0,34.0,40.0,44.0,36.0,41.0,4.0
8,2,30,100.0,3.1275000000000004,1.0,49.5,0.0,100.0,7.0,14.0,9.0,21.0,12.0,26.0,5.0,28.0,34.0,40.0,44.0,36.0,41.0,4.0
9,2,60,100.0,3.141,1.0,47.5,0.0,100.0,7.0,14.0,9.0,21.0,12.0,26.0,5.0,28.0,34.0,40.0,44.0,36.0,41.0,4.0
10,2,90,68.5,2.5775,1.0,44.5,0.0,68.5,7.0,14.0,9.0,21.0,12.0,26.0,5.0,28.0,34.0,40.0,44.0,36.0,41.0,4.0
11,2,120,48.0,3.2965,1.0,23.0,0.0,48.0,7.0,14.0,9.0,21.0,12.0,26.0,5.0,28.0,34.0,40.0,44.0,36.0,41.0,4.0
12,2,150,4.5,3.0010000000000003,0.0,27.5,0.0,4.5,7.0,14.0,9.0,21.0,12.0,26.0,5.0,28.0,34.0,40.0,44.0,36.0,41.0,4.0
13,2,180,0.0,2.9405,0.0,44.0,0.0,0.0,7.0,14.0,9.0,21.0,12.0,26.0,5.0,28.0,34.0,40.0,44.0,36.0,41.0,4.0
14,3,0,85.0,3.7375,1.0,34.0,31.0,54.0,15.555555555555555,22.0,17.0,11.0,15.0,11.0,5.0,48.0,32.0,37.0,37.0,36.0,67.0,0.0
15,3,30,91.5,3.3825000000000003,1.0,54.0,31.0,60.5,15.555555555555555,22.0,17.0,11.0,15.0,11.0,5.0,48.0,32.0,37.0,37.0,36.0,67.0,0.0
16,3,60,70.5,3.5575,1.0,39.5,31.0,39.5,15.555555555555555,22.0,17.0,11.0,15.0,11.0,5.0,48.0,32.0,37.0,37.0,36.0,67.0,0.0
17,3,90,61.0,4.0634999999999994,1.0,52.0,31.0,30.0,15.555555555555555,22.0,17.0,11.0,15.0,11.0,5.0,48.0,32.0,37.0,37.0,36.0,67.0,0.0
18,3,120,42.0,4.2065,1.0,36.0,31.0,11.0,15.555555555555555,22.0,17.0,11.0,15.0,11.0,5.0,48.0,32.0,37.0,37.0,36.0,67.0,0.0
19,3,150,32.5,4.6195,1.0,46.5,31.0,1.5,15.555555555555555,22.0,17.0,11.0,15.0,11.0,5.0,48.0,32.0,37.0,37.0,36.0,67.0,0.0
20,3,180,31.0,4.8515,1.0,25.0,31.0,0.0,15.555555555555555,22.0,17.0,11.0,15.0,11.0,5.0,48.0,32.0,37.0,37.0,36.0,67.0,0.0
21,4,0,87.5,4.2295,1.0,43.5,27.5,60.0,10.0,14.0,6.0,15.0,12.0,19.0,13.0,40.0,37.0,52.0,50.0,45.81818181818182,36.0,3.0
22,4,30,87.5,4.1275,1.0,46.0,27.5,60.0,10.0,14.0,6.0,15.0,12.0,19.0,13.0,40.0,37.0,52.0,50.0,45.81818181818182,36.0,3.0
23,4,60,86.0,4.0045,1.0,37.0,27.5,58.5,10.0,14.0,6.0,15.0,12.0,19.0,13.0,40.0,37.0,52.0,50.0,45.81818181818182,36.0,3.0
24,4,90,70.0,5.041,1.0,30.5,27.5,42.5,10.0,14.0,6.0,15.0,12.0,19.0,13.0,40.0,37.0,52.0,50.0,45.81818181818182,36.0,3.0
25,4,120,60.0,4.9719999999999995,1.0,44.5,27.5,32.5,10.0,14.0,6.0,15.0,12.0,19.0,13.0,40.0,37.0,52.0,50.0,45.81818181818182,36.0,3.0
26,4,150,42.0,4.13,0.5,53.0,27.5,14.5,10.0,14.0,6.0,15.0,12.0,19.0,13.0,40.0,37.0,52.0,50.0,45.81818181818182,36.0,3.0
27,4,180,27.5,4.2295,1.0,35.5,27.5,0.0,10.0,14.0,6.0,15.0,12.0,19.0,13.0,40.0,37.0,52.0,50.0,45.81818181818182,36.0,3.0
28,5,0,100.0,2.6944999999999997,1.0,48.5,16.5,83.5,22.0,20.0,16.0,21.0,18.0,22.0,26.0,46.0,29.0,41.0,36.0,44.0,74.0,1.0
29,5,30,92.5,2.9275,1.0,27.5,16.5,76.0,22.0,20.0,16.0,21.0,18.0,22.0,26.0,46.0,29.0,41.0,36.0,44.0,74.0,1.0
30,5,60,89.5,2.8315,1.0,36.5,16.5,73.0,22.0,20.0,16.0,21.0,18.0,22.0,26.0,46.0,29.0,41.0,36.0,44.0,74.0,1.0
31,5,90,35.0,2.9539999999999997,1.0,32.0,16.5,18.5,22.0,20.0,16.0,21.0,18.0,22.0,26.0,46.0,29.0,41.0,36.0,44.0,74.0,1.0
32,5,120,26.0,2.975,1.0,43.5,16.5,9.5,22.0,20.0,16.0,21.0,18.0,22.0,26.0,46.0,29.0,41.0,36.0,44.0,74.0,1.0
33,5,150,18.0,2.9379999999999997,1.0,52.5,16.5,1.5,22.0,20.0,16.0,21.0,18.0,22.0,26.0,46.0,29.0,41.0,36.0,44.0,74.0,1.0
34,5,180,16.5,2.7344999999999997,0.5,46.5,16.5,0.0,22.0,20.0,16.0,21.0,18.0,22.0,26.0,46.0,29.0,41.0,36.0,44.0,74.0,1.0
35,6,0,100.0,2.8825000000000003,1.0,58.0,2.0,98.0,16.0,18.0,13.0,18.0,14.0,37.0,10.0,43.0,43.0,36.0,46.0,54.0,59.0,1.0
36,6,30,100.0,2.9685,1.0,44.0,2.0,98.0,16.0,18.0,13.0,18.0,14.0,37.0,10.0,43.0,43.0,36.0,46.0,54.0,59.0,1.0
37,6,60,100.0,3.0395,1.0,56.5,2.0,98.0,16.0,18.0,13.0,18.0,14.0,37.0,10.0,43.0,43.0,36.0,46.0,54.0,59.0,1.0
38,6,90,100.0,3.231,1.0,29.0,2.0,98.0,16.0,18.0,13.0,18.0,14.0,37.0,10.0,43.0,43.0,36.0,46.0,54.0,59.0,1.0
39,6,120,88.5,2.972,1.0,38.5,2.0,86.5,16.0,18.0,13.0,18.0,14.0,37.0,10.0,43.0,43.0,36.0,46.0,54.0,59.0,1.0
40,6,150,70.0,3.1079999999999997,1.0,28.0,2.0,68.0,16.0,18.0,13.0,18.0,14.0,37.0,10.0,43.0,43.0,36.0,46.0,54.0,59.0,1.0
41,6,180,2.0,3.1595000000000004,0.5,41.0,2.0,0.0,16.0,18.0,13.0,18.0,14.0,37.0,10.0,43.0,43.0,36.0,46.0,54.0,59.0,1.0
42,7,0,93.0,4.2245,1.0,54.5,13.0,80.0,16.0,15.0,14.0,11.0,10.0,3.0,3.0,37.0,29.0,39.0,40.0,39.0,51.72222222222222,4.0
43,7,30,90.5,4.5135000000000005,1.0,37.0,13.0,77.5,16.0,15.0,14.0,11.0,10.0,3.0,3.0,37.0,29.0,39.0,40.0,39.0,51.72222222222222,4.0
44,7,60,91.5,4.439,1.0,19.0,13.0,78.5,16.0,15.0,14.0,11.0,10.0,3.0,3.0,37.0,29.0,39.0,40.0,39.0,51.72222222222222,4.0
45,7,90,73.5,4.987,1.0,57.5,13.0,60.5,16.0,15.0,14.0,11.0,10.0,3.0,3.0,37.0,29.0,39.0,40.0,39.0,51.72222222222222,4.0
46,7,120,35.5,4.8325,1.0,41.0,13.0,22.5,16.0,15.0,14.0,11.0,10.0,3.0,3.0,37.0,29.0,39.0,40.0,39.0,51.72222222222222,4.0
47,7,150,18.5,4.975,0.5,36.5,13.0,5.5,16.0,15.0,14.0,11.0,10.0,3.0,3.0,37.0,29.0,39.0,40.0,39.0,51.72222222222222,4.0
48,7,180,13.0,4.5855,0.0,38.5,13.0,0.0,16.0,15.0,14.0,11.0,10.0,3.0,3.0,37.0,29.0,39.0,40.0,39.0,51.72222222222222,4.0
49,8,0,98.5,2.0925000000000002,1.0,32.0,8.5,90.0,14.0,22.0,8.0,26.0,11.0,16.0,13.0,48.0,27.0,48.0,48.0,38.0,52.0,6.0
50,8,30,98.5,1.9575,1.0,45.0,8.5,90.0,14.0,22.0,8.0,26.0,11.0,16.0,13.0,48.0,27.0,48.0,48.0,38.0,52.0,6.0
51,8,60,97.0,2.112,1.0,42.0,8.5,88.5,14.0,22.0,8.0,26.0,11.0,16.0,13.0,48.0,27.0,48.0,48.0,38.0,52.0,6.0
52,8,90,94.0,1.8645,1.0,42.0,8.5,85.5,14.0,22.0,8.0,26.0,11.0,16.0,13.0,48.0,27.0,48.0,48.0,38.0,52.0,6.0
53,8,120,75.5,2.096,1.0,31.5,8.5,67.0,14.0,22.0,8.0,26.0,11.0,16.0,13.0,48.0,27.0,48.0,48.0,38.0,52.0,6.0
54,8,150,20.5,2.222,0.0,38.0,8.5,12.0,14.0,22.0,8.0,26.0,11.0,16.0,13.0,48.0,27.0,48.0,48.0,38.0,52.0,6.0
55,8,180,8.5,2.383,1.0,53.0,8.5,0.0,14.0,22.0,8.0,26.0,11.0,16.0,13.0,48.0,27.0,48.0,48.0,38.0,52.0,6.0
56,9,0,86.5,1.7610000000000001,1.0,57.5,12.5,74.0,26.0,16.0,10.0,16.0,16.0,19.0,4.0,30.0,29.0,44.0,40.0,47.0,57.0,2.0
57,9,30,86.5,1.611,1.0,60.0,12.5,74.0,26.0,16.0,10.0,16.0,16.0,19.0,4.0,30.0,29.0,44.0,40.0,47.0,57.0,2.0
58,9,60,74.0,1.8755000000000002,1.0,35.0,12.5,61.5,26.0,16.0,10.0,16.0,16.0,19.0,4.0,30.0,29.0,44.0,40.0,47.0,57.0,2.0
59,9,90,64.0,1.886,1.0,43.5,12.5,51.5,26.0,16.0,10.0,16.0,16.0,19.0,4.0,30.0,29.0,44.0,40.0,47.0,57.0,2.0
60,9,120,31.5,1.9425,1.0,51.5,12.5,19.0,26.0,16.0,10.0,16.0,16.0,19.0,4.0,30.0,29.0,44.0,40.0,47.0,57.0,2.0
61,9,150,9.0,2.002,1.0,30.5,12.5,-3.5,26.0,16.0,10.0,16.0,16.0,19.0,4.0,30.0,29.0,44.0,40.0,47.0,57.0,2.0
62,9,180,12.5,2.5025,1.0,25.5,12.5,0.0,26.0,16.0,10.0,16.0,16.0,19.0,4.0,30.0,29.0,44.0,40.0,47.0,57.0,2.0
63,10,0,98.0,3.3754999999999997,1.0,51.0,3.5,94.5,7.0,6.0,10.0,12.0,8.0,31.0,0.0,20.0,48.0,38.0,46.0,58.0,28.0,4.0
64,10,30,98.0,3.1805000000000003,1.0,38.5,3.5,94.5,7.0,6.0,10.0,12.0,8.0,31.0,0.0,20.0,48.0,38.0,46.0,58.0,28.0,4.0
65,10,60,99.0,3.064,1.0,47.0,3.5,95.5,7.0,6.0,10.0,12.0,8.0,31.0,0.0,20.0,48.0,38.0,46.0,58.0,28.0,4.0
66,10,90,97.0,3.332,1.0,50.0,3.5,93.5,7.0,6.0,10.0,12.0,8.0,31.0,0.0,20.0,48.0,38.0,46.0,58.0,28.0,4.0
67,10,120,5.0,3.979,1.0,40.5,3.5,1.5,7.0,6.0,10.0,12.0,8.0,31.0,0.0,20.0,48.0,38.0,46.0,58.0,28.0,4.0
68,10,150,5.0,3.1755,1.0,38.5,3.5,1.5,7.0,6.0,10.0,12.0,8.0,31.0,0.0,20.0,48.0,38.0,46.0,58.0,28.0,4.0
69,10,180,3.5,3.7445,0.5,36.0,3.5,0.0,7.0,6.0,10.0,12.0,8.0,31.0,0.0,20.0,48.0,38.0,46.0,58.0,28.0,4.0
70,12,0,100.0,2.5455,1.0,28.0,0.0,100.0,28.0,29.0,17.0,22.0,30.0,12.0,35.0,60.0,20.0,31.0,29.0,33.0,70.0,2.0
71,12,30,100.0,2.419,1.0,38.0,0.0,100.0,28.0,29.0,17.0,22.0,30.0,12.0,35.0,60.0,20.0,31.0,29.0,33.0,70.0,2.0
72,12,60,100.0,2.7569999999999997,1.0,36.0,0.0,100.0,28.0,29.0,17.0,22.0,30.0,12.0,35.0,60.0,20.0,31.0,29.0,33.0,70.0,2.0
73,12,90,100.0,2.4705,1.0,50.0,0.0,100.0,28.0,29.0,17.0,22.0,30.0,12.0,35.0,60.0,20.0,31.0,29.0,33.0,70.0,2.0
74,12,120,72.0,3.5140000000000002,1.0,36.5,0.0,72.0,28.0,29.0,17.0,22.0,30.0,12.0,35.0,60.0,20.0,31.0,29.0,33.0,70.0,2.0
75,12,150,18.5,3.004,1.0,57.5,0.0,18.5,28.0,29.0,17.0,22.0,30.0,12.0,35.0,60.0,20.0,31.0,29.0,33.0,70.0,2.0
76,12,180,0.0,3.2515,0.5,37.0,0.0,0.0,28.0,29.0,17.0,22.0,30.0,12.0,35.0,60.0,20.0,31.0,29.0,33.0,70.0,2.0
77,13,0,97.0,2.646,1.0,44.5,0.0,97.0,10.0,22.0,6.0,19.0,14.0,20.0,6.0,32.0,31.0,41.0,38.0,31.0,44.0,4.0
78,13,30,93.5,2.7925000000000004,1.0,21.5,0.0,93.5,10.0,22.0,6.0,19.0,14.0,20.0,6.0,32.0,31.0,41.0,38.0,31.0,44.0,4.0
79,13,60,88.0,2.5975,1.0,22.0,0.0,88.0,10.0,22.0,6.0,19.0,14.0,20.0,6.0,32.0,31.0,41.0,38.0,31.0,44.0,4.0
80,13,90,76.0,2.6654999999999998,1.0,58.5,0.0,76.0,10.0,22.0,6.0,19.0,14.0,20.0,6.0,32.0,31.0,41.0,38.0,31.0,44.0,4.0
81,13,120,42.5,2.7800000000000002,1.0,33.5,0.0,42.5,10.0,22.0,6.0,19.0,14.0,20.0,6.0,32.0,31.0,41.0,38.0,31.0,44.0,4.0
82,13,150,8.0,2.8285,0.0,42.0,0.0,8.0,10.0,22.0,6.0,19.0,14.0,20.0,6.0,32.0,31.0,41.0,38.0,31.0,44.0,4.0
83,13,180,0.0,2.7954999999999997,1.0,57.0,0.0,0.0,10.0,22.0,6.0,19.0,14.0,20.0,6.0,32.0,31.0,41.0,38.0,31.0,44.0,4.0
84,14,0,98.0,2.7670000000000003,1.0,27.5,31.5,66.5,4.0,9.0,3.0,21.0,0.0,37.0,0.0,44.0,50.0,50.0,46.0,60.0,60.0,2.0
85,14,30,98.0,2.1985,1.0,54.0,31.5,66.5,4.0,9.0,3.0,21.0,0.0,37.0,0.0,44.0,50.0,50.0,46.0,60.0,60.0,2.0
86,14,60,97.0,2.2880000000000003,1.0,28.5,31.5,65.5,4.0,9.0,3.0,21.0,0.0,37.0,0.0,44.0,50.0,50.0,46.0,60.0,60.0,2.0
87,14,90,83.0,2.75,1.0,35.0,31.5,51.5,4.0,9.0,3.0,21.0,0.0,37.0,0.0,44.0,50.0,50.0,46.0,60.0,60.0,2.0
88,14,120,48.0,3.1455,1.0,43.5,31.5,16.5,4.0,9.0,3.0,21.0,0.0,37.0,0.0,44.0,50.0,50.0,46.0,60.0,60.0,2.0
89,14,150,6.0,3.0389999999999997,0.0,37.0,31.5,-25.5,4.0,9.0,3.0,21.0,0.0,37.0,0.0,44.0,50.0,50.0,46.0,60.0,60.0,2.0
90,14,180,31.5,3.0505,1.0,48.5,31.5,0.0,4.0,9.0,3.0,21.0,0.0,37.0,0.0,44.0,50.0,50.0,46.0,60.0,60.0,2.0
91,15,0,80.5,4.0785,1.0,52.5,58.5,22.0,14.444444444444445,15.0,14.0,15.0,16.0,21.0,15.0,38.0,42.0,35.0,38.0,40.0,52.0,1.0
92,15,30,74.0,5.214,1.0,60.5,58.5,15.5,14.444444444444445,15.0,14.0,15.0,16.0,21.0,15.0,38.0,42.0,35.0,38.0,40.0,52.0,1.0
93,15,60,72.5,4.476,1.0,33.5,58.5,14.0,14.444444444444445,15.0,14.0,15.0,16.0,21.0,15.0,38.0,42.0,35.0,38.0,40.0,52.0,1.0
94,15,90,71.0,5.4525,1.0,25.0,58.5,12.5,14.444444444444445,15.0,14.0,15.0,16.0,21.0,15.0,38.0,42.0,35.0,38.0,40.0,52.0,1.0
95,15,120,61.0,4.67,1.0,37.0,58.5,2.5,14.444444444444445,15.0,14.0,15.0,16.0,21.0,15.0,38.0,42.0,35.0,38.0,40.0,52.0,1.0
96,15,150,52.0,5.111,1.0,42.5,58.5,-6.5,14.444444444444445,15.0,14.0,15.0,16.0,21.0,15.0,38.0,42.0,35.0,38.0,40.0,52.0,1.0
97,15,180,58.5,4.5145,1.0,32.5,58.5,0.0,14.444444444444445,15.0,14.0,15.0,16.0,21.0,15.0,38.0,42.0,35.0,38.0,40.0,52.0,1.0
98,16,0,91.5,5.9335,1.0,62.0,42.0,49.5,20.0,18.0,9.0,15.0,12.0,36.0,10.0,29.0,37.0,33.0,41.0,50.0,49.0,4.0
99,16,30,87.5,5.46,1.0,29.0,42.0,45.5,20.0,18.0,9.0,15.0,12.0,36.0,10.0,29.0,37.0,33.0,41.0,50.0,49.0,4.0
100,16,60,88.0,6.098,1.0,47.5,42.0,46.0,20.0,18.0,9.0,15.0,12.0,36.0,10.0,29.0,37.0,33.0,41.0,50.0,49.0,4.0
101,16,90,73.5,5.852499999999999,1.0,45.5,42.0,31.5,20.0,18.0,9.0,15.0,12.0,36.0,10.0,29.0,37.0,33.0,41.0,50.0,49.0,4.0
102,16,120,50.0,5.9965,1.0,56.0,42.0,8.0,20.0,18.0,9.0,15.0,12.0,36.0,10.0,29.0,37.0,33.0,41.0,50.0,49.0,4.0
103,16,150,53.5,6.23,0.5,24.5,42.0,11.5,20.0,18.0,9.0,15.0,12.0,36.0,10.0,29.0,37.0,33.0,41.0,50.0,49.0,4.0
104,16,180,42.0,6.2955000000000005,0.0,27.0,42.0,0.0,20.0,18.0,9.0,15.0,12.0,36.0,10.0,29.0,37.0,33.0,41.0,50.0,49.0,4.0
105,17,0,77.5,2.5105,1.0,24.0,40.5,37.0,14.0,17.0,12.0,16.0,15.0,28.0,16.0,41.0,40.0,36.0,41.0,43.0,50.0,4.0
106,17,30,78.0,2.588,1.0,43.5,40.5,37.5,14.0,17.0,12.0,16.0,15.0,28.0,16.0,41.0,40.0,36.0,41.0,43.0,50.0,4.0
107,17,60,74.5,2.1435,1.0,57.5,40.5,34.0,14.0,17.0,12.0,16.0,15.0,28.0,16.0,41.0,40.0,36.0,41.0,43.0,50.0,4.0
108,17,90,67.5,2.3955,1.0,29.5,40.5,27.0,14.0,17.0,12.0,16.0,15.0,28.0,16.0,41.0,40.0,36.0,41.0,43.0,50.0,4.0
109,17,120,49.5,2.7105,1.0,44.0,40.5,9.0,14.0,17.0,12.0,16.0,15.0,28.0,16.0,41.0,40.0,36.0,41.0,43.0,50.0,4.0
110,17,150,46.5,3.2880000000000003,1.0,35.5,40.5,6.0,14.0,17.0,12.0,16.0,15.0,28.0,16.0,41.0,40.0,36.0,41.0,43.0,50.0,4.0
111,17,180,40.5,2.4749999999999996,0.0,54.0,40.5,0.0,14.0,17.0,12.0,16.0,15.0,28.0,16.0,41.0,40.0,36.0,41.0,43.0,50.0,4.0
112,18,0,90.0,2.8289999999999997,1.0,15.5,25.5,64.5,16.0,15.0,9.0,5.0,13.0,12.0,1.0,28.0,36.0,33.0,41.0,43.0,34.0,2.0
113,18,30,91.0,3.034,1.0,52.5,25.5,65.5,16.0,15.0,9.0,5.0,13.0,12.0,1.0,28.0,36.0,33.0,41.0,43.0,34.0,2.0
114,18,60,88.0,2.917,1.0,48.5,25.5,62.5,16.0,15.0,9.0,5.0,13.0,12.0,1.0,28.0,36.0,33.0,41.0,43.0,34.0,2.0
115,18,90,69.0,2.793,1.0,52.5,25.5,43.5,16.0,15.0,9.0,5.0,13.0,12.0,1.0,28.0,36.0,33.0,41.0,43.0,34.0,2.0
116,18,120,29.5,2.8179999999999996,1.0,36.5,25.5,4.0,16.0,15.0,9.0,5.0,13.0,12.0,1.0,28.0,36.0,33.0,41.0,43.0,34.0,2.0
117,18,150,25.0,2.9775,1.0,32.5,25.5,-0.5,16.0,15.0,9.0,5.0,13.0,12.0,1.0,28.0,36.0,33.0,41.0,43.0,34.0,2.0
118,18,180,25.5,2.635,0.0,53.0,25.5,0.0,16.0,15.0,9.0,5.0,13.0,12.0,1.0,28.0,36.0,33.0,41.0,43.0,34.0,2.0
119,19,0,94.5,2.962,1.0,33.0,4.5,90.0,10.0,18.0,8.0,14.0,7.0,24.0,1.0,17.0,37.0,48.0,45.0,43.0,30.0,3.0
120,19,30,94.0,3.159,1.0,33.0,4.5,89.5,10.0,18.0,8.0,14.0,7.0,24.0,1.0,17.0,37.0,48.0,45.0,43.0,30.0,3.0
121,19,60,87.5,3.0725,1.0,33.0,4.5,83.0,10.0,18.0,8.0,14.0,7.0,24.0,1.0,17.0,37.0,48.0,45.0,43.0,30.0,3.0
122,19,90,61.0,3.5075000000000003,1.0,46.0,4.5,56.5,10.0,18.0,8.0,14.0,7.0,24.0,1.0,17.0,37.0,48.0,45.0,43.0,30.0,3.0
123,19,120,17.0,3.117,1.0,46.0,4.5,12.5,10.0,18.0,8.0,14.0,7.0,24.0,1.0,17.0,37.0,48.0,45.0,43.0,30.0,3.0
124,19,150,14.0,3.628,1.0,52.5,4.5,9.5,10.0,18.0,8.0,14.0,7.0,24.0,1.0,17.0,37.0,48.0,45.0,43.0,30.0,3.0
125,19,180,4.5,3.6405000000000003,0.0,47.5,4.5,0.0,10.0,18.0,8.0,14.0,7.0,24.0,1.0,17.0,37.0,48.0,45.0,43.0,30.0,3.0
126,20,0,92.5,4.304500000000001,1.0,27.0,12.0,80.5,10.0,20.0,8.0,14.0,8.0,30.0,10.0,32.0,39.0,51.0,43.0,52.0,53.0,4.0
127,20,30,94.5,4.423500000000001,1.0,51.0,12.0,82.5,10.0,20.0,8.0,14.0,8.0,30.0,10.0,32.0,39.0,51.0,43.0,52.0,53.0,4.0
128,20,60,83.5,3.9275,1.0,52.5,12.0,71.5,10.0,20.0,8.0,14.0,8.0,30.0,10.0,32.0,39.0,51.0,43.0,52.0,53.0,4.0
129,20,90,75.5,4.077,1.0,41.0,12.0,63.5,10.0,20.0,8.0,14.0,8.0,30.0,10.0,32.0,39.0,51.0,43.0,52.0,53.0,4.0
130,20,120,49.5,4.525,1.0,45.5,12.0,37.5,10.0,20.0,8.0,14.0,8.0,30.0,10.0,32.0,39.0,51.0,43.0,52.0,53.0,4.0
131,20,150,25.5,4.1665,0.5,36.5,12.0,13.5,10.0,20.0,8.0,14.0,8.0,30.0,10.0,32.0,39.0,51.0,43.0,52.0,53.0,4.0
132,20,180,12.0,4.7215,1.0,43.5,12.0,0.0,10.0,20.0,8.0,14.0,8.0,30.0,10.0,32.0,39.0,51.0,43.0,52.0,53.0,4.0
133,21,0,97.5,2.5795000000000003,1.0,40.0,5.5,92.0,7.0,9.0,7.0,10.0,4.0,33.0,0.0,12.0,42.0,43.0,51.0,50.0,20.0,4.0
134,21,30,98.0,2.3005,1.0,35.0,5.5,92.5,7.0,9.0,7.0,10.0,4.0,33.0,0.0,12.0,42.0,43.0,51.0,50.0,20.0,4.0
135,21,60,99.0,2.5460000000000003,1.0,50.5,5.5,93.5,7.0,9.0,7.0,10.0,4.0,33.0,0.0,12.0,42.0,43.0,51.0,50.0,20.0,4.0
136,21,90,95.5,2.595,1.0,47.0,5.5,90.0,7.0,9.0,7.0,10.0,4.0,33.0,0.0,12.0,42.0,43.0,51.0,50.0,20.0,4.0
137,21,120,13.5,2.5345000000000004,1.0,31.5,5.5,8.0,7.0,9.0,7.0,10.0,4.0,33.0,0.0,12.0,42.0,43.0,51.0,50.0,20.0,4.0
138,21,150,7.0,2.449,0.0,48.5,5.5,1.5,7.0,9.0,7.0,10.0,4.0,33.0,0.0,12.0,42.0,43.0,51.0,50.0,20.0,4.0
139,21,180,5.5,2.4645,0.5,36.0,5.5,0.0,7.0,9.0,7.0,10.0,4.0,33.0,0.0,12.0,42.0,43.0,51.0,50.0,20.0,4.0
140,22,0,77.5,3.636,1.0,42.0,30.0,47.5,6.0,11.0,6.0,13.0,4.0,23.0,1.0,27.0,52.0,44.0,48.0,53.0,29.0,6.0
141,22,30,74.0,3.7095000000000002,1.0,52.0,30.0,44.0,6.0,11.0,6.0,13.0,4.0,23.0,1.0,27.0,52.0,44.0,48.0,53.0,29.0,6.0
142,22,60,76.0,3.534,1.0,33.5,30.0,46.0,6.0,11.0,6.0,13.0,4.0,23.0,1.0,27.0,52.0,44.0,48.0,53.0,29.0,6.0
143,22,90,69.0,3.3475,1.0,38.0,30.0,39.0,6.0,11.0,6.0,13.0,4.0,23.0,1.0,27.0,52.0,44.0,48.0,53.0,29.0,6.0
144,22,120,37.0,4.1385000000000005,1.0,35.0,30.0,7.0,6.0,11.0,6.0,13.0,4.0,23.0,1.0,27.0,52.0,44.0,48.0,53.0,29.0,6.0
145,22,150,28.5,3.8925,0.0,57.0,30.0,-1.5,6.0,11.0,6.0,13.0,4.0,23.0,1.0,27.0,52.0,44.0,48.0,53.0,29.0,6.0
146,22,180,30.0,4.355,1.0,45.0,30.0,0.0,6.0,11.0,6.0,13.0,4.0,23.0,1.0,27.0,52.0,44.0,48.0,53.0,29.0,6.0
147,25,0,95.5,2.6425,1.0,31.0,3.0,92.5,24.0,16.0,11.0,12.0,12.0,14.0,0.0,25.0,22.0,51.0,33.0,34.90909090909091,65.0,0.0
148,25,30,96.0,2.7235,1.0,46.5,3.0,93.0,24.0,16.0,11.0,12.0,12.0,14.0,0.0,25.0,22.0,51.0,33.0,34.90909090909091,65.0,0.0
149,25,60,98.0,2.612,1.0,33.5,3.0,95.0,24.0,16.0,11.0,12.0,12.0,14.0,0.0,25.0,22.0,51.0,33.0,34.90909090909091,65.0,0.0
150,25,90,97.5,2.7815000000000003,1.0,49.5,3.0,94.5,24.0,16.0,11.0,12.0,12.0,14.0,0.0,25.0,22.0,51.0,33.0,34.90909090909091,65.0,0.0
151,25,120,96.0,2.7205,1.0,47.0,3.0,93.0,24.0,16.0,11.0,12.0,12.0,14.0,0.0,25.0,22.0,51.0,33.0,34.90909090909091,65.0,0.0
152,25,150,2.0,3.2815000000000003,1.0,37.5,3.0,-1.0,24.0,16.0,11.0,12.0,12.0,14.0,0.0,25.0,22.0,51.0,33.0,34.90909090909091,65.0,0.0
153,25,180,3.0,3.2925,1.0,33.0,3.0,0.0,24.0,16.0,11.0,12.0,12.0,14.0,0.0,25.0,22.0,51.0,33.0,34.90909090909091,65.0,0.0
154,26,0,100.0,2.81,1.0,35.5,2.0,98.0,21.0,15.0,8.0,15.0,11.0,17.0,6.0,34.0,26.0,32.0,44.0,56.0,35.0,1.0
155,26,30,100.0,2.8735,1.0,45.5,2.0,98.0,21.0,15.0,8.0,15.0,11.0,17.0,6.0,34.0,26.0,32.0,44.0,56.0,35.0,1.0
156,26,60,88.5,2.877,1.0,53.5,2.0,86.5,21.0,15.0,8.0,15.0,11.0,17.0,6.0,34.0,26.0,32.0,44.0,56.0,35.0,1.0
157,26,90,65.5,3.239,1.0,34.0,2.0,63.5,21.0,15.0,8.0,15.0,11.0,17.0,6.0,34.0,26.0,32.0,44.0,56.0,35.0,1.0
158,26,120,26.0,3.168,1.0,37.0,2.0,24.0,21.0,15.0,8.0,15.0,11.0,17.0,6.0,34.0,26.0,32.0,44.0,56.0,35.0,1.0
159,26,150,16.5,3.4284999999999997,1.0,41.0,2.0,14.5,21.0,15.0,8.0,15.0,11.0,17.0,6.0,34.0,26.0,32.0,44.0,56.0,35.0,1.0
160,26,180,2.0,3.775,0.0,50.0,2.0,0.0,21.0,15.0,8.0,15.0,11.0,17.0,6.0,34.0,26.0,32.0,44.0,56.0,35.0,1.0
161,27,0,100.0,4.173,1.0,44.0,0.0,100.0,21.0,15.0,18.0,13.0,9.0,13.0,16.0,36.0,24.0,41.0,39.0,47.0,74.0,1.0
162,27,30,100.0,3.7344999999999997,1.0,50.5,0.0,100.0,21.0,15.0,18.0,13.0,9.0,13.0,16.0,36.0,24.0,41.0,39.0,47.0,74.0,1.0
163,27,60,100.0,3.9370000000000003,1.0,40.0,0.0,100.0,21.0,15.0,18.0,13.0,9.0,13.0,16.0,36.0,24.0,41.0,39.0,47.0,74.0,1.0
164,27,90,100.0,3.989,1.0,38.5,0.0,100.0,21.0,15.0,18.0,13.0,9.0,13.0,16.0,36.0,24.0,41.0,39.0,47.0,74.0,1.0
165,27,120,0.0,4.125500000000001,1.0,29.5,0.0,0.0,21.0,15.0,18.0,13.0,9.0,13.0,16.0,36.0,24.0,41.0,39.0,47.0,74.0,1.0
166,27,150,0.0,3.734,1.0,44.0,0.0,0.0,21.0,15.0,18.0,13.0,9.0,13.0,16.0,36.0,24.0,41.0,39.0,47.0,74.0,1.0
167,27,180,0.0,4.3955,0.0,48.0,0.0,0.0,21.0,15.0,18.0,13.0,9.0,13.0,16.0,36.0,24.0,41.0,39.0,47.0,74.0,1.0
168,28,0,79.0,1.7125,1.0,39.5,20.0,59.0,19.0,17.0,15.0,17.0,14.0,19.0,4.0,41.0,31.0,41.0,40.0,38.0,54.0,2.0
169,28,30,71.5,1.5739999999999998,1.0,37.0,20.0,51.5,19.0,17.0,15.0,17.0,14.0,19.0,4.0,41.0,31.0,41.0,40.0,38.0,54.0,2.0
170,28,60,71.5,1.946,1.0,49.5,20.0,51.5,19.0,17.0,15.0,17.0,14.0,19.0,4.0,41.0,31.0,41.0,40.0,38.0,54.0,2.0
171,28,90,67.0,1.8664999999999998,1.0,40.5,20.0,47.0,19.0,17.0,15.0,17.0,14.0,19.0,4.0,41.0,31.0,41.0,40.0,38.0,54.0,2.0
172,28,120,54.0,2.2335000000000003,1.0,49.0,20.0,34.0,19.0,17.0,15.0,17.0,14.0,19.0,4.0,41.0,31.0,41.0,40.0,38.0,54.0,2.0
173,28,150,28.0,1.923,1.0,37.5,20.0,8.0,19.0,17.0,15.0,17.0,14.0,19.0,4.0,41.0,31.0,41.0,40.0,38.0,54.0,2.0
174,28,180,20.0,1.9685000000000001,1.0,36.0,20.0,0.0,19.0,17.0,15.0,17.0,14.0,19.0,4.0,41.0,31.0,41.0,40.0,38.0,54.0,2.0
175,29,0,100.0,2.8495,1.0,52.0,0.0,100.0,22.0,16.0,14.0,14.0,17.0,13.0,1.0,31.0,29.0,42.0,40.0,43.63636363636363,43.0,1.0
176,29,30,100.0,2.9145,1.0,39.5,0.0,100.0,22.0,16.0,14.0,14.0,17.0,13.0,1.0,31.0,29.0,42.0,40.0,43.63636363636363,43.0,1.0
177,29,60,100.0,2.705,1.0,39.5,0.0,100.0,22.0,16.0,14.0,14.0,17.0,13.0,1.0,31.0,29.0,42.0,40.0,43.63636363636363,43.0,1.0
178,29,90,68.0,2.908,1.0,39.0,0.0,68.0,22.0,16.0,14.0,14.0,17.0,13.0,1.0,31.0,29.0,42.0,40.0,43.63636363636363,43.0,1.0
179,29,120,0.0,3.1525,1.0,54.5,0.0,0.0,22.0,16.0,14.0,14.0,17.0,13.0,1.0,31.0,29.0,42.0,40.0,43.63636363636363,43.0,1.0
180,29,150,0.0,3.0155000000000003,0.0,27.5,0.0,0.0,22.0,16.0,14.0,14.0,17.0,13.0,1.0,31.0,29.0,42.0,40.0,43.63636363636363,43.0,1.0
181,29,180,0.0,3.3775000000000004,1.0,45.5,0.0,0.0,22.0,16.0,14.0,14.0,17.0,13.0,1.0,31.0,29.0,42.0,40.0,43.63636363636363,43.0,1.0
182,30,0,96.5,2.0140000000000002,1.0,30.5,44.5,52.0,4.0,9.0,6.666666666666667,21.0,6.0,35.0,0.0,24.0,52.0,37.0,39.0,58.0,23.0,15.0
183,30,30,100.0,1.905,1.0,60.5,44.5,55.5,4.0,9.0,6.666666666666667,21.0,6.0,35.0,0.0,24.0,52.0,37.0,39.0,58.0,23.0,15.0
184,30,60,90.5,2.9425,1.0,33.5,44.5,46.0,4.0,9.0,6.666666666666667,21.0,6.0,35.0,0.0,24.0,52.0,37.0,39.0,58.0,23.0,15.0
185,30,90,100.0,2.1814999999999998,1.0,47.5,44.5,55.5,4.0,9.0,6.666666666666667,21.0,6.0,35.0,0.0,24.0,52.0,37.0,39.0,58.0,23.0,15.0
186,30,120,44.0,2.2355,0.5,38.0,44.5,-0.5,4.0,9.0,6.666666666666667,21.0,6.0,35.0,0.0,24.0,52.0,37.0,39.0,58.0,23.0,15.0
187,30,150,11.0,2.3455,0.5,44.5,44.5,-33.5,4.0,9.0,6.666666666666667,21.0,6.0,35.0,0.0,24.0,52.0,37.0,39.0,58.0,23.0,15.0
188,30,180,44.5,2.495,0.0,31.5,44.5,0.0,4.0,9.0,6.666666666666667,21.0,6.0,35.0,0.0,24.0,52.0,37.0,39.0,58.0,23.0,15.0
189,31,0,97.0,3.6995,1.0,38.0,15.5,81.5,19.0,16.666666666666668,16.0,23.0,19.0,4.0,12.0,46.0,31.0,35.0,42.0,36.0,62.0,6.0
190,31,30,93.5,3.7190000000000003,1.0,36.0,15.5,78.0,19.0,16.666666666666668,16.0,23.0,19.0,4.0,12.0,46.0,31.0,35.0,42.0,36.0,62.0,6.0
191,31,60,92.0,3.7640000000000002,1.0,43.5,15.5,76.5,19.0,16.666666666666668,16.0,23.0,19.0,4.0,12.0,46.0,31.0,35.0,42.0,36.0,62.0,6.0
192,31,90,81.5,3.3120000000000003,1.0,44.5,15.5,66.0,19.0,16.666666666666668,16.0,23.0,19.0,4.0,12.0,46.0,31.0,35.0,42.0,36.0,62.0,6.0
193,31,120,70.0,3.6405000000000003,1.0,50.0,15.5,54.5,19.0,16.666666666666668,16.0,23.0,19.0,4.0,12.0,46.0,31.0,35.0,42.0,36.0,62.0,6.0
194,31,150,38.5,3.7714999999999996,1.0,56.5,15.5,23.0,19.0,16.666666666666668,16.0,23.0,19.0,4.0,12.0,46.0,31.0,35.0,42.0,36.0,62.0,6.0
195,31,180,15.5,4.159,1.0,25.5,15.5,0.0,19.0,16.666666666666668,16.0,23.0,19.0,4.0,12.0,46.0,31.0,35.0,42.0,36.0,62.0,6.0
196,32,0,89.0,2.3445,1.0,44.5,22.0,67.0,10.0,16.0,7.0,15.0,10.0,8.0,1.0,37.0,46.0,45.0,42.0,44.0,46.0,5.0
197,32,30,86.0,2.4515000000000002,1.0,54.5,22.0,64.0,10.0,16.0,7.0,15.0,10.0,8.0,1.0,37.0,46.0,45.0,42.0,44.0,46.0,5.0
198,32,60,77.5,2.4525,1.0,28.5,22.0,55.5,10.0,16.0,7.0,15.0,10.0,8.0,1.0,37.0,46.0,45.0,42.0,44.0,46.0,5.0
199,32,90,72.0,2.6195,1.0,45.5,22.0,50.0,10.0,16.0,7.0,15.0,10.0,8.0,1.0,37.0,46.0,45.0,42.0,44.0,46.0,5.0
200,32,120,31.0,2.943,1.0,36.5,22.0,9.0,10.0,16.0,7.0,15.0,10.0,8.0,1.0,37.0,46.0,45.0,42.0,44.0,46.0,5.0
201,32,150,23.0,2.8425,1.0,50.5,22.0,1.0,10.0,16.0,7.0,15.0,10.0,8.0,1.0,37.0,46.0,45.0,42.0,44.0,46.0,5.0
202,32,180,22.0,2.4524999999999997,1.0,31.5,22.0,0.0,10.0,16.0,7.0,15.0,10.0,8.0,1.0,37.0,46.0,45.0,42.0,44.0,46.0,5.0
203,33,0,100.0,3.0265,1.0,53.0,6.5,93.5,20.0,20.0,9.0,6.0,14.0,26.0,5.0,26.0,41.0,37.0,41.0,56.0,50.0,3.0
204,33,30,98.0,2.7625,1.0,47.5,6.5,91.5,20.0,20.0,9.0,6.0,14.0,26.0,5.0,26.0,41.0,37.0,41.0,56.0,50.0,3.0
205,33,60,94.0,3.142,1.0,40.0,6.5,87.5,20.0,20.0,9.0,6.0,14.0,26.0,5.0,26.0,41.0,37.0,41.0,56.0,50.0,3.0
206,33,90,86.5,4.052,1.0,45.0,6.5,80.0,20.0,20.0,9.0,6.0,14.0,26.0,5.0,26.0,41.0,37.0,41.0,56.0,50.0,3.0
207,33,120,55.5,3.4885,1.0,40.5,6.5,49.0,20.0,20.0,9.0,6.0,14.0,26.0,5.0,26.0,41.0,37.0,41.0,56.0,50.0,3.0
208,33,150,5.5,3.4855,0.5,20.0,6.5,-1.0,20.0,20.0,9.0,6.0,14.0,26.0,5.0,26.0,41.0,37.0,41.0,56.0,50.0,3.0
209,33,180,6.5,3.5789999999999997,0.5,29.0,6.5,0.0,20.0,20.0,9.0,6.0,14.0,26.0,5.0,26.0,41.0,37.0,41.0,56.0,50.0,3.0
210,34,0,94.0,2.6820000000000004,1.0,52.5,19.0,75.0,6.0,9.0,6.0,14.0,7.0,28.0,8.0,26.0,47.0,43.0,45.0,42.0,28.0,15.0
211,34,30,94.5,2.7375,1.0,31.0,19.0,75.5,6.0,9.0,6.0,14.0,7.0,28.0,8.0,26.0,47.0,43.0,45.0,42.0,28.0,15.0
212,34,60,93.5,2.9705000000000004,1.0,35.0,19.0,74.5,6.0,9.0,6.0,14.0,7.0,28.0,8.0,26.0,47.0,43.0,45.0,42.0,28.0,15.0
213,34,90,81.5,2.9045,1.0,58.0,19.0,62.5,6.0,9.0,6.0,14.0,7.0,28.0,8.0,26.0,47.0,43.0,45.0,42.0,28.0,15.0
214,34,120,23.5,3.209,1.0,23.5,19.0,4.5,6.0,9.0,6.0,14.0,7.0,28.0,8.0,26.0,47.0,43.0,45.0,42.0,28.0,15.0
215,34,150,19.5,2.9059999999999997,1.0,42.5,19.0,0.5,6.0,9.0,6.0,14.0,7.0,28.0,8.0,26.0,47.0,43.0,45.0,42.0,28.0,15.0
216,34,180,19.0,3.0555000000000003,1.0,56.0,19.0,0.0,6.0,9.0,6.0,14.0,7.0,28.0,8.0,26.0,47.0,43.0,45.0,42.0,28.0,15.0
217,35,0,100.0,2.6414999999999997,1.0,33.0,0.5,99.5,14.0,13.0,12.0,17.0,12.0,28.0,0.0,28.0,41.0,44.0,41.0,48.0,51.0,5.0
218,35,30,100.0,2.9575,1.0,43.0,0.5,99.5,14.0,13.0,12.0,17.0,12.0,28.0,0.0,28.0,41.0,44.0,41.0,48.0,51.0,5.0
219,35,60,100.0,2.95,1.0,46.5,0.5,99.5,14.0,13.0,12.0,17.0,12.0,28.0,0.0,28.0,41.0,44.0,41.0,48.0,51.0,5.0
220,35,90,99.0,2.7510000000000003,1.0,44.0,0.5,98.5,14.0,13.0,12.0,17.0,12.0,28.0,0.0,28.0,41.0,44.0,41.0,48.0,51.0,5.0
221,35,120,13.5,2.6445,1.0,36.0,0.5,13.0,14.0,13.0,12.0,17.0,12.0,28.0,0.0,28.0,41.0,44.0,41.0,48.0,51.0,5.0
222,35,150,1.5,3.1065,0.5,49.5,0.5,1.0,14.0,13.0,12.0,17.0,12.0,28.0,0.0,28.0,41.0,44.0,41.0,48.0,51.0,5.0
223,35,180,0.5,2.9269999999999996,0.0,50.5,0.5,0.0,14.0,13.0,12.0,17.0,12.0,28.0,0.0,28.0,41.0,44.0,41.0,48.0,51.0,5.0
224,36,0,100.0,4.6835,1.0,42.0,0.0,100.0,6.666666666666667,18.0,9.0,18.0,13.0,33.0,14.0,38.0,42.0,42.0,35.0,46.0,36.0,4.0
225,36,30,100.0,4.4275,1.0,30.5,0.0,100.0,6.666666666666667,18.0,9.0,18.0,13.0,33.0,14.0,38.0,42.0,42.0,35.0,46.0,36.0,4.0
226,36,60,100.0,4.686,1.0,39.0,0.0,100.0,6.666666666666667,18.0,9.0,18.0,13.0,33.0,14.0,38.0,42.0,42.0,35.0,46.0,36.0,4.0
227,36,90,100.0,5.2875,1.0,43.5,0.0,100.0,6.666666666666667,18.0,9.0,18.0,13.0,33.0,14.0,38.0,42.0,42.0,35.0,46.0,36.0,4.0
228,36,120,0.0,4.6594999999999995,1.0,25.5,0.0,0.0,6.666666666666667,18.0,9.0,18.0,13.0,33.0,14.0,38.0,42.0,42.0,35.0,46.0,36.0,4.0
229,36,150,0.0,5.0329999999999995,1.0,57.5,0.0,0.0,6.666666666666667,18.0,9.0,18.0,13.0,33.0,14.0,38.0,42.0,42.0,35.0,46.0,36.0,4.0
230,36,180,0.0,5.159,1.0,41.0,0.0,0.0,6.666666666666667,18.0,9.0,18.0,13.0,33.0,14.0,38.0,42.0,42.0,35.0,46.0,36.0,4.0
231,37,0,100.0,1.6745,1.0,29.0,0.0,100.0,9.0,14.0,9.0,19.0,8.0,31.0,12.0,36.0,42.0,39.0,42.0,43.0,50.0,4.0
232,37,30,100.0,1.748,1.0,24.5,0.0,100.0,9.0,14.0,9.0,19.0,8.0,31.0,12.0,36.0,42.0,39.0,42.0,43.0,50.0,4.0
233,37,60,100.0,1.6355,1.0,54.0,0.0,100.0,9.0,14.0,9.0,19.0,8.0,31.0,12.0,36.0,42.0,39.0,42.0,43.0,50.0,4.0
234,37,90,100.0,1.6615000000000002,1.0,51.0,0.0,100.0,9.0,14.0,9.0,19.0,8.0,31.0,12.0,36.0,42.0,39.0,42.0,43.0,50.0,4.0
235,37,120,0.0,2.1685,1.0,59.5,0.0,0.0,9.0,14.0,9.0,19.0,8.0,31.0,12.0,36.0,42.0,39.0,42.0,43.0,50.0,4.0
236,37,150,0.0,2.2024999999999997,1.0,28.5,0.0,0.0,9.0,14.0,9.0,19.0,8.0,31.0,12.0,36.0,42.0,39.0,42.0,43.0,50.0,4.0
237,37,180,0.0,2.0995,0.0,42.5,0.0,0.0,9.0,14.0,9.0,19.0,8.0,31.0,12.0,36.0,42.0,39.0,42.0,43.0,50.0,4.0
238,38,0,97.5,3.381,1.0,63.0,54.0,43.5,12.0,14.0,13.0,17.0,17.0,27.0,18.0,37.0,36.0,39.0,42.0,37.0,49.0,2.0
239,38,30,77.5,3.519,1.0,51.0,54.0,23.5,12.0,14.0,13.0,17.0,17.0,27.0,18.0,37.0,36.0,39.0,42.0,37.0,49.0,2.0
240,38,60,87.5,3.3765,1.0,21.5,54.0,33.5,12.0,14.0,13.0,17.0,17.0,27.0,18.0,37.0,36.0,39.0,42.0,37.0,49.0,2.0
241,38,90,63.5,3.5985,1.0,42.0,54.0,9.5,12.0,14.0,13.0,17.0,17.0,27.0,18.0,37.0,36.0,39.0,42.0,37.0,49.0,2.0
242,38,120,59.5,2.9805,1.0,35.0,54.0,5.5,12.0,14.0,13.0,17.0,17.0,27.0,18.0,37.0,36.0,39.0,42.0,37.0,49.0,2.0
243,38,150,41.0,3.314,1.0,25.0,54.0,-13.0,12.0,14.0,13.0,17.0,17.0,27.0,18.0,37.0,36.0,39.0,42.0,37.0,49.0,2.0
244,38,180,54.0,3.396,0.5,39.0,54.0,0.0,12.0,14.0,13.0,17.0,17.0,27.0,18.0,37.0,36.0,39.0,42.0,37.0,49.0,2.0
245,39,0,100.0,1.8565,1.0,42.0,8.0,92.0,12.0,14.0,9.0,22.0,13.0,12.0,18.0,44.0,38.0,42.0,41.0,41.0,56.0,3.0
246,39,30,100.0,2.3280000000000003,1.0,25.0,8.0,92.0,12.0,14.0,9.0,22.0,13.0,12.0,18.0,44.0,38.0,42.0,41.0,41.0,56.0,3.0
247,39,60,95.5,2.2115,1.0,41.5,8.0,87.5,12.0,14.0,9.0,22.0,13.0,12.0,18.0,44.0,38.0,42.0,41.0,41.0,56.0,3.0
248,39,90,80.5,2.5389999999999997,1.0,51.5,8.0,72.5,12.0,14.0,9.0,22.0,13.0,12.0,18.0,44.0,38.0,42.0,41.0,41.0,56.0,3.0
249,39,120,38.5,2.774,1.0,51.0,8.0,30.5,12.0,14.0,9.0,22.0,13.0,12.0,18.0,44.0,38.0,42.0,41.0,41.0,56.0,3.0
250,39,150,16.5,2.7744999999999997,1.0,28.5,8.0,8.5,12.0,14.0,9.0,22.0,13.0,12.0,18.0,44.0,38.0,42.0,41.0,41.0,56.0,3.0
251,39,180,8.0,2.9745,0.5,60.5,8.0,0.0,12.0,14.0,9.0,22.0,13.0,12.0,18.0,44.0,38.0,42.0,41.0,41.0,56.0,3.0
252,40,0,77.0,3.112,1.0,22.5,18.5,58.5,22.0,16.0,14.0,16.0,12.0,23.0,2.0,32.0,32.0,39.0,45.0,47.0,40.0,4.0
253,40,30,76.5,2.9775,1.0,50.0,18.5,58.0,22.0,16.0,14.0,16.0,12.0,23.0,2.0,32.0,32.0,39.0,45.0,47.0,40.0,4.0
254,40,60,75.5,2.972,1.0,47.5,18.5,57.0,22.0,16.0,14.0,16.0,12.0,23.0,2.0,32.0,32.0,39.0,45.0,47.0,40.0,4.0
255,40,90,53.5,3.0854999999999997,1.0,29.0,18.5,35.0,22.0,16.0,14.0,16.0,12.0,23.0,2.0,32.0,32.0,39.0,45.0,47.0,40.0,4.0
256,40,120,35.0,3.242,1.0,32.5,18.5,16.5,22.0,16.0,14.0,16.0,12.0,23.0,2.0,32.0,32.0,39.0,45.0,47.0,40.0,4.0
257,40,150,20.5,2.928,1.0,54.5,18.5,2.0,22.0,16.0,14.0,16.0,12.0,23.0,2.0,32.0,32.0,39.0,45.0,47.0,40.0,4.0
258,40,180,18.5,2.798,1.0,47.0,18.5,0.0,22.0,16.0,14.0,16.0,12.0,23.0,2.0,32.0,32.0,39.0,45.0,47.0,40.0,4.0
259,41,0,96.5,3.2035,1.0,48.0,26.5,70.0,19.0,19.0,6.0,23.0,12.0,10.0,16.0,41.0,31.0,38.0,35.0,29.0,63.0,5.0
260,41,30,95.0,3.4675000000000002,1.0,39.0,26.5,68.5,19.0,19.0,6.0,23.0,12.0,10.0,16.0,41.0,31.0,38.0,35.0,29.0,63.0,5.0
261,41,60,93.5,3.2615,1.0,37.5,26.5,67.0,19.0,19.0,6.0,23.0,12.0,10.0,16.0,41.0,31.0,38.0,35.0,29.0,63.0,5.0
262,41,90,84.5,3.2510000000000003,1.0,34.5,26.5,58.0,19.0,19.0,6.0,23.0,12.0,10.0,16.0,41.0,31.0,38.0,35.0,29.0,63.0,5.0
263,41,120,62.5,3.3949999999999996,1.0,63.0,26.5,36.0,19.0,19.0,6.0,23.0,12.0,10.0,16.0,41.0,31.0,38.0,35.0,29.0,63.0,5.0
264,41,150,57.5,3.5555,0.5,31.5,26.5,31.0,19.0,19.0,6.0,23.0,12.0,10.0,16.0,41.0,31.0,38.0,35.0,29.0,63.0,5.0
265,41,180,26.5,4.222,0.0,28.5,26.5,0.0,19.0,19.0,6.0,23.0,12.0,10.0,16.0,41.0,31.0,38.0,35.0,29.0,63.0,5.0
266,42,0,100.0,2.8565,1.0,61.5,0.0,100.0,19.0,25.0,12.0,19.0,19.0,13.0,20.0,49.0,31.0,31.0,36.0,32.0,52.0,5.0
267,42,30,100.0,2.7475,1.0,44.5,0.0,100.0,19.0,25.0,12.0,19.0,19.0,13.0,20.0,49.0,31.0,31.0,36.0,32.0,52.0,5.0
268,42,60,100.0,2.8594999999999997,1.0,47.0,0.0,100.0,19.0,25.0,12.0,19.0,19.0,13.0,20.0,49.0,31.0,31.0,36.0,32.0,52.0,5.0
269,42,90,79.0,2.9565,1.0,29.5,0.0,79.0,19.0,25.0,12.0,19.0,19.0,13.0,20.0,49.0,31.0,31.0,36.0,32.0,52.0,5.0
270,42,120,0.0,3.0785,1.0,46.5,0.0,0.0,19.0,25.0,12.0,19.0,19.0,13.0,20.0,49.0,31.0,31.0,36.0,32.0,52.0,5.0
271,42,150,0.0,2.6595,0.5,33.0,0.0,0.0,19.0,25.0,12.0,19.0,19.0,13.0,20.0,49.0,31.0,31.0,36.0,32.0,52.0,5.0
272,42,180,0.0,2.466,0.5,28.5,0.0,0.0,19.0,25.0,12.0,19.0,19.0,13.0,20.0,49.0,31.0,31.0,36.0,32.0,52.0,5.0
273,43,0,92.5,3.3185000000000002,1.0,44.5,54.5,38.0,19.0,18.0,15.0,22.0,22.0,30.0,11.0,47.0,35.0,48.0,42.0,36.0,47.0,4.0
274,43,30,75.0,2.975,1.0,45.5,54.5,20.5,19.0,18.0,15.0,22.0,22.0,30.0,11.0,47.0,35.0,48.0,42.0,36.0,47.0,4.0
275,43,60,75.5,3.1835,1.0,35.0,54.5,21.0,19.0,18.0,15.0,22.0,22.0,30.0,11.0,47.0,35.0,48.0,42.0,36.0,47.0,4.0
276,43,90,79.0,3.4145000000000003,1.0,39.5,54.5,24.5,19.0,18.0,15.0,22.0,22.0,30.0,11.0,47.0,35.0,48.0,42.0,36.0,47.0,4.0
277,43,120,75.0,3.0955,1.0,62.5,54.5,20.5,19.0,18.0,15.0,22.0,22.0,30.0,11.0,47.0,35.0,48.0,42.0,36.0,47.0,4.0
278,43,150,67.0,4.4455,1.0,25.5,54.5,12.5,19.0,18.0,15.0,22.0,22.0,30.0,11.0,47.0,35.0,48.0,42.0,36.0,47.0,4.0
279,43,180,54.5,4.039,0.0,39.0,54.5,0.0,19.0,18.0,15.0,22.0,22.0,30.0,11.0,47.0,35.0,48.0,42.0,36.0,47.0,4.0
280,44,0,83.0,1.5870000000000002,1.0,31.5,12.0,71.0,11.0,18.0,8.0,25.0,11.0,17.0,0.0,53.0,38.0,45.0,40.0,50.0,41.0,6.0
281,44,30,83.5,1.5385,1.0,32.5,12.0,71.5,11.0,18.0,8.0,25.0,11.0,17.0,0.0,53.0,38.0,45.0,40.0,50.0,41.0,6.0
282,44,60,78.5,1.5755,1.0,48.0,12.0,66.5,11.0,18.0,8.0,25.0,11.0,17.0,0.0,53.0,38.0,45.0,40.0,50.0,41.0,6.0
283,44,90,74.5,1.773,1.0,25.0,12.0,62.5,11.0,18.0,8.0,25.0,11.0,17.0,0.0,53.0,38.0,45.0,40.0,50.0,41.0,6.0
284,44,120,28.5,1.7429999999999999,1.0,60.5,12.0,16.5,11.0,18.0,8.0,25.0,11.0,17.0,0.0,53.0,38.0,45.0,40.0,50.0,41.0,6.0
285,44,150,23.5,1.7595,1.0,34.0,12.0,11.5,11.0,18.0,8.0,25.0,11.0,17.0,0.0,53.0,38.0,45.0,40.0,50.0,41.0,6.0
286,44,180,12.0,1.8735,0.0,46.0,12.0,0.0,11.0,18.0,8.0,25.0,11.0,17.0,0.0,53.0,38.0,45.0,40.0,50.0,41.0,6.0
287,45,0,92.5,2.964,1.0,38.5,0.0,92.5,25.0,20.0,20.0,8.0,13.0,8.0,0.0,20.0,18.0,23.0,42.54545454545455,50.0,48.0,1.0
288,45,30,89.5,3.043,1.0,46.5,0.0,89.5,25.0,20.0,20.0,8.0,13.0,8.0,0.0,20.0,18.0,23.0,42.54545454545455,50.0,48.0,1.0
289,45,60,89.0,3.3675,1.0,40.5,0.0,89.0,25.0,20.0,20.0,8.0,13.0,8.0,0.0,20.0,18.0,23.0,42.54545454545455,50.0,48.0,1.0
290,45,90,79.0,3.0585,1.0,36.5,0.0,79.0,25.0,20.0,20.0,8.0,13.0,8.0,0.0,20.0,18.0,23.0,42.54545454545455,50.0,48.0,1.0
291,45,120,7.0,3.9225,1.0,45.0,0.0,7.0,25.0,20.0,20.0,8.0,13.0,8.0,0.0,20.0,18.0,23.0,42.54545454545455,50.0,48.0,1.0
292,45,150,2.5,3.351,0.5,27.0,0.0,2.5,25.0,20.0,20.0,8.0,13.0,8.0,0.0,20.0,18.0,23.0,42.54545454545455,50.0,48.0,1.0
293,45,180,0.0,3.586,1.0,46.0,0.0,0.0,25.0,20.0,20.0,8.0,13.0,8.0,0.0,20.0,18.0,23.0,42.54545454545455,50.0,48.0,1.0
294,46,0,82.5,3.859,1.0,55.0,17.5,65.0,23.0,25.0,20.0,14.0,17.0,21.0,8.0,51.0,32.0,46.0,41.0,28.0,41.0,4.0
295,46,30,90.0,3.824,1.0,35.5,17.5,72.5,23.0,25.0,20.0,14.0,17.0,21.0,8.0,51.0,32.0,46.0,41.0,28.0,41.0,4.0
296,46,60,77.0,3.859,1.0,45.5,17.5,59.5,23.0,25.0,20.0,14.0,17.0,21.0,8.0,51.0,32.0,46.0,41.0,28.0,41.0,4.0
297,46,90,64.5,4.638,1.0,24.5,17.5,47.0,23.0,25.0,20.0,14.0,17.0,21.0,8.0,51.0,32.0,46.0,41.0,28.0,41.0,4.0
298,46,120,38.5,4.316,1.0,30.5,17.5,21.0,23.0,25.0,20.0,14.0,17.0,21.0,8.0,51.0,32.0,46.0,41.0,28.0,41.0,4.0
299,46,150,18.5,5.134,1.0,47.0,17.5,1.0,23.0,25.0,20.0,14.0,17.0,21.0,8.0,51.0,32.0,46.0,41.0,28.0,41.0,4.0
300,46,180,17.5,4.644,1.0,51.5,17.5,0.0,23.0,25.0,20.0,14.0,17.0,21.0,8.0,51.0,32.0,46.0,41.0,28.0,41.0,4.0
301,47,0,100.0,2.2075,1.0,36.5,4.0,96.0,12.0,15.0,11.0,13.0,7.0,7.0,0.0,33.0,36.0,35.0,45.0,39.0,37.0,1.0
302,47,30,100.0,2.474,1.0,58.5,4.0,96.0,12.0,15.0,11.0,13.0,7.0,7.0,0.0,33.0,36.0,35.0,45.0,39.0,37.0,1.0
303,47,60,100.0,2.465,1.0,34.0,4.0,96.0,12.0,15.0,11.0,13.0,7.0,7.0,0.0,33.0,36.0,35.0,45.0,39.0,37.0,1.0
304,47,90,100.0,2.5615,1.0,44.0,4.0,96.0,12.0,15.0,11.0,13.0,7.0,7.0,0.0,33.0,36.0,35.0,45.0,39.0,37.0,1.0
305,47,120,15.5,3.401,1.0,32.5,4.0,11.5,12.0,15.0,11.0,13.0,7.0,7.0,0.0,33.0,36.0,35.0,45.0,39.0,37.0,1.0
306,47,150,0.5,3.6310000000000002,1.0,28.0,4.0,-3.5,12.0,15.0,11.0,13.0,7.0,7.0,0.0,33.0,36.0,35.0,45.0,39.0,37.0,1.0
307,47,180,4.0,3.3845,1.0,38.5,4.0,0.0,12.0,15.0,11.0,13.0,7.0,7.0,0.0,33.0,36.0,35.0,45.0,39.0,37.0,1.0
308,48,0,98.0,2.1265,1.0,38.0,2.5,95.5,12.0,22.0,12.0,18.0,16.0,19.0,14.0,47.0,30.0,36.0,39.0,43.0,42.0,6.0
309,48,30,90.0,2.251,1.0,40.0,2.5,87.5,12.0,22.0,12.0,18.0,16.0,19.0,14.0,47.0,30.0,36.0,39.0,43.0,42.0,6.0
310,48,60,88.0,2.5629999999999997,1.0,44.5,2.5,85.5,12.0,22.0,12.0,18.0,16.0,19.0,14.0,47.0,30.0,36.0,39.0,43.0,42.0,6.0
311,48,90,68.5,2.0010000000000003,1.0,37.5,2.5,66.0,12.0,22.0,12.0,18.0,16.0,19.0,14.0,47.0,30.0,36.0,39.0,43.0,42.0,6.0
312,48,120,34.0,2.354,1.0,48.5,2.5,31.5,12.0,22.0,12.0,18.0,16.0,19.0,14.0,47.0,30.0,36.0,39.0,43.0,42.0,6.0
313,48,150,18.5,2.589,1.0,11.0,2.5,16.0,12.0,22.0,12.0,18.0,16.0,19.0,14.0,47.0,30.0,36.0,39.0,43.0,42.0,6.0
314,48,180,2.5,2.388,0.5,61.5,2.5,0.0,12.0,22.0,12.0,18.0,16.0,19.0,14.0,47.0,30.0,36.0,39.0,43.0,42.0,6.0
315,49,0,100.0,2.1475,1.0,47.5,0.0,100.0,4.0,8.0,4.0,15.0,5.0,20.0,10.0,41.0,34.0,48.0,43.0,50.0,57.0,3.0
316,49,30,100.0,2.3335,1.0,47.0,0.0,100.0,4.0,8.0,4.0,15.0,5.0,20.0,10.0,41.0,34.0,48.0,43.0,50.0,57.0,3.0
317,49,60,95.0,2.492,1.0,37.0,0.0,95.0,4.0,8.0,4.0,15.0,5.0,20.0,10.0,41.0,34.0,48.0,43.0,50.0,57.0,3.0
318,49,90,75.5,4.2265,1.0,33.5,0.0,75.5,4.0,8.0,4.0,15.0,5.0,20.0,10.0,41.0,34.0,48.0,43.0,50.0,57.0,3.0
319,49,120,15.0,2.9015,1.0,48.0,0.0,15.0,4.0,8.0,4.0,15.0,5.0,20.0,10.0,41.0,34.0,48.0,43.0,50.0,57.0,3.0
320,49,150,2.5,3.2270000000000003,1.0,30.0,0.0,2.5,4.0,8.0,4.0,15.0,5.0,20.0,10.0,41.0,34.0,48.0,43.0,50.0,57.0,3.0
321,49,180,0.0,2.2255000000000003,1.0,52.5,0.0,0.0,4.0,8.0,4.0,15.0,5.0,20.0,10.0,41.0,34.0,48.0,43.0,50.0,57.0,3.0
322,50,0,92.0,2.662,1.0,47.0,24.5,67.5,11.0,13.0,13.0,19.0,12.0,23.0,2.0,21.0,45.0,42.0,50.0,42.0,42.0,5.0
323,50,30,82.5,2.9335,1.0,24.5,24.5,58.0,11.0,13.0,13.0,19.0,12.0,23.0,2.0,21.0,45.0,42.0,50.0,42.0,42.0,5.0
324,50,60,84.0,2.934,1.0,42.0,24.5,59.5,11.0,13.0,13.0,19.0,12.0,23.0,2.0,21.0,45.0,42.0,50.0,42.0,42.0,5.0
325,50,90,66.5,2.724,1.0,63.5,24.5,42.0,11.0,13.0,13.0,19.0,12.0,23.0,2.0,21.0,45.0,42.0,50.0,42.0,42.0,5.0
326,50,120,52.5,3.149,1.0,50.0,24.5,28.0,11.0,13.0,13.0,19.0,12.0,23.0,2.0,21.0,45.0,42.0,50.0,42.0,42.0,5.0
327,50,150,13.5,3.3810000000000002,1.0,26.5,24.5,-11.0,11.0,13.0,13.0,19.0,12.0,23.0,2.0,21.0,45.0,42.0,50.0,42.0,42.0,5.0
328,50,180,24.5,3.194,0.0,36.5,24.5,0.0,11.0,13.0,13.0,19.0,12.0,23.0,2.0,21.0,45.0,42.0,50.0,42.0,42.0,5.0
329,51,0,100.0,2.6715,1.0,36.0,0.0,100.0,7.0,14.0,7.0,4.0,6.0,29.0,0.0,27.0,46.0,37.0,45.0,45.0,31.0,6.0
330,51,30,100.0,2.706,1.0,39.0,0.0,100.0,7.0,14.0,7.0,4.0,6.0,29.0,0.0,27.0,46.0,37.0,45.0,45.0,31.0,6.0
331,51,60,100.0,2.5745,1.0,46.5,0.0,100.0,7.0,14.0,7.0,4.0,6.0,29.0,0.0,27.0,46.0,37.0,45.0,45.0,31.0,6.0
332,51,90,100.0,2.597,1.0,57.5,0.0,100.0,7.0,14.0,7.0,4.0,6.0,29.0,0.0,27.0,46.0,37.0,45.0,45.0,31.0,6.0
333,51,120,12.0,2.5815,1.0,32.5,0.0,12.0,7.0,14.0,7.0,4.0,6.0,29.0,0.0,27.0,46.0,37.0,45.0,45.0,31.0,6.0
334,51,150,0.0,2.5229999999999997,1.0,55.0,0.0,0.0,7.0,14.0,7.0,4.0,6.0,29.0,0.0,27.0,46.0,37.0,45.0,45.0,31.0,6.0
335,51,180,0.0,2.5655,0.5,38.5,0.0,0.0,7.0,14.0,7.0,4.0,6.0,29.0,0.0,27.0,46.0,37.0,45.0,45.0,31.0,6.0
336,54,0,96.0,4.702500000000001,1.0,22.5,42.5,53.5,16.0,17.0,8.0,11.0,12.0,25.0,8.0,26.0,30.0,47.0,40.0,46.0,45.0,5.0
337,54,30,96.5,3.987,1.0,53.0,42.5,54.0,16.0,17.0,8.0,11.0,12.0,25.0,8.0,26.0,30.0,47.0,40.0,46.0,45.0,5.0
338,54,60,90.5,3.8215,1.0,34.0,42.5,48.0,16.0,17.0,8.0,11.0,12.0,25.0,8.0,26.0,30.0,47.0,40.0,46.0,45.0,5.0
339,54,90,85.0,4.255,1.0,43.0,42.5,42.5,16.0,17.0,8.0,11.0,12.0,25.0,8.0,26.0,30.0,47.0,40.0,46.0,45.0,5.0
340,54,120,68.5,4.078,1.0,47.5,42.5,26.0,16.0,17.0,8.0,11.0,12.0,25.0,8.0,26.0,30.0,47.0,40.0,46.0,45.0,5.0
341,54,150,56.0,4.665,1.0,30.0,42.5,13.5,16.0,17.0,8.0,11.0,12.0,25.0,8.0,26.0,30.0,47.0,40.0,46.0,45.0,5.0
342,54,180,42.5,4.5335,1.0,45.5,42.5,0.0,16.0,17.0,8.0,11.0,12.0,25.0,8.0,26.0,30.0,47.0,40.0,46.0,45.0,5.0
343,55,0,79.0,2.5385,1.0,53.5,36.0,43.0,19.0,17.0,12.0,16.0,16.0,24.0,4.0,37.0,31.0,45.0,35.0,38.0,40.0,4.0
344,55,30,80.5,2.572,1.0,46.0,36.0,44.5,19.0,17.0,12.0,16.0,16.0,24.0,4.0,37.0,31.0,45.0,35.0,38.0,40.0,4.0
345,55,60,68.0,2.3685,1.0,44.5,36.0,32.0,19.0,17.0,12.0,16.0,16.0,24.0,4.0,37.0,31.0,45.0,35.0,38.0,40.0,4.0
346,55,90,60.5,2.4545000000000003,1.0,31.5,36.0,24.5,19.0,17.0,12.0,16.0,16.0,24.0,4.0,37.0,31.0,45.0,35.0,38.0,40.0,4.0
347,55,120,45.0,2.548,1.0,33.0,36.0,9.0,19.0,17.0,12.0,16.0,16.0,24.0,4.0,37.0,31.0,45.0,35.0,38.0,40.0,4.0
348,55,150,28.5,3.0075000000000003,1.0,44.0,36.0,-7.5,19.0,17.0,12.0,16.0,16.0,24.0,4.0,37.0,31.0,45.0,35.0,38.0,40.0,4.0
349,55,180,36.0,2.708,1.0,38.0,36.0,0.0,19.0,17.0,12.0,16.0,16.0,24.0,4.0,37.0,31.0,45.0,35.0,38.0,40.0,4.0
350,56,0,99.5,2.871,1.0,32.0,14.0,85.5,10.0,13.0,3.0,13.0,5.0,27.0,5.0,28.363636363636363,41.0,25.0,48.0,53.0,25.0,2.0
351,56,30,94.0,3.2645,1.0,60.5,14.0,80.0,10.0,13.0,3.0,13.0,5.0,27.0,5.0,28.363636363636363,41.0,25.0,48.0,53.0,25.0,2.0
352,56,60,90.0,2.9770000000000003,1.0,21.0,14.0,76.0,10.0,13.0,3.0,13.0,5.0,27.0,5.0,28.363636363636363,41.0,25.0,48.0,53.0,25.0,2.0
353,56,90,70.0,2.8075,1.0,60.5,14.0,56.0,10.0,13.0,3.0,13.0,5.0,27.0,5.0,28.363636363636363,41.0,25.0,48.0,53.0,25.0,2.0
354,56,120,47.0,3.258,1.0,33.0,14.0,33.0,10.0,13.0,3.0,13.0,5.0,27.0,5.0,28.363636363636363,41.0,25.0,48.0,53.0,25.0,2.0
355,56,150,35.5,3.2264999999999997,1.0,41.0,14.0,21.5,10.0,13.0,3.0,13.0,5.0,27.0,5.0,28.363636363636363,41.0,25.0,48.0,53.0,25.0,2.0
356,56,180,14.0,2.9175,0.5,39.0,14.0,0.0,10.0,13.0,3.0,13.0,5.0,27.0,5.0,28.363636363636363,41.0,25.0,48.0,53.0,25.0,2.0
357,57,0,71.5,2.029,1.0,41.5,37.5,34.0,7.0,15.0,11.0,18.0,8.0,22.0,6.0,28.0,48.0,49.0,50.0,49.0,36.0,5.0
358,57,30,79.5,2.041,1.0,25.0,37.5,42.0,7.0,15.0,11.0,18.0,8.0,22.0,6.0,28.0,48.0,49.0,50.0,49.0,36.0,5.0
359,57,60,69.0,1.9260000000000002,1.0,48.5,37.5,31.5,7.0,15.0,11.0,18.0,8.0,22.0,6.0,28.0,48.0,49.0,50.0,49.0,36.0,5.0
360,57,90,61.0,2.073,1.0,40.5,37.5,23.5,7.0,15.0,11.0,18.0,8.0,22.0,6.0,28.0,48.0,49.0,50.0,49.0,36.0,5.0
361,57,120,41.0,2.308,1.0,43.0,37.5,3.5,7.0,15.0,11.0,18.0,8.0,22.0,6.0,28.0,48.0,49.0,50.0,49.0,36.0,5.0
362,57,150,32.5,2.651,1.0,54.0,37.5,-5.0,7.0,15.0,11.0,18.0,8.0,22.0,6.0,28.0,48.0,49.0,50.0,49.0,36.0,5.0
363,57,180,37.5,2.807,0.5,28.5,37.5,0.0,7.0,15.0,11.0,18.0,8.0,22.0,6.0,28.0,48.0,49.0,50.0,49.0,36.0,5.0
364,58,0,98.5,2.341,1.0,34.5,5.5,93.0,3.0,8.0,5.0,17.0,6.0,31.0,3.0,28.0,54.0,43.0,46.0,44.0,32.0,10.0
365,58,30,95.0,2.521,1.0,35.0,5.5,89.5,3.0,8.0,5.0,17.0,6.0,31.0,3.0,28.0,54.0,43.0,46.0,44.0,32.0,10.0
366,58,60,99.0,2.774,1.0,19.5,5.5,93.5,3.0,8.0,5.0,17.0,6.0,31.0,3.0,28.0,54.0,43.0,46.0,44.0,32.0,10.0
367,58,90,87.0,2.67,1.0,58.5,5.5,81.5,3.0,8.0,5.0,17.0,6.0,31.0,3.0,28.0,54.0,43.0,46.0,44.0,32.0,10.0
368,58,120,13.5,2.6559999999999997,1.0,39.5,5.5,8.0,3.0,8.0,5.0,17.0,6.0,31.0,3.0,28.0,54.0,43.0,46.0,44.0,32.0,10.0
369,58,150,6.5,2.987,1.0,59.0,5.5,1.0,3.0,8.0,5.0,17.0,6.0,31.0,3.0,28.0,54.0,43.0,46.0,44.0,32.0,10.0
370,58,180,5.5,2.9255,1.0,48.5,5.5,0.0,3.0,8.0,5.0,17.0,6.0,31.0,3.0,28.0,54.0,43.0,46.0,44.0,32.0,10.0
371,59,0,77.5,0.9095,1.0,53.0,20.0,57.5,13.0,18.0,7.0,24.0,12.0,29.0,24.0,34.0,35.0,40.0,43.0,46.0,45.0,5.0
372,59,30,76.0,0.8165,1.0,39.0,20.0,56.0,13.0,18.0,7.0,24.0,12.0,29.0,24.0,34.0,35.0,40.0,43.0,46.0,45.0,5.0
373,59,60,71.0,0.9155,1.0,38.5,20.0,51.0,13.0,18.0,7.0,24.0,12.0,29.0,24.0,34.0,35.0,40.0,43.0,46.0,45.0,5.0
374,59,90,65.5,0.8234999999999999,1.0,25.5,20.0,45.5,13.0,18.0,7.0,24.0,12.0,29.0,24.0,34.0,35.0,40.0,43.0,46.0,45.0,5.0
375,59,120,43.0,1.0270000000000001,1.0,35.5,20.0,23.0,13.0,18.0,7.0,24.0,12.0,29.0,24.0,34.0,35.0,40.0,43.0,46.0,45.0,5.0
376,59,150,15.0,0.9265,0.0,61.5,20.0,-5.0,13.0,18.0,7.0,24.0,12.0,29.0,24.0,34.0,35.0,40.0,43.0,46.0,45.0,5.0
377,59,180,20.0,1.0505,0.0,45.0,20.0,0.0,13.0,18.0,7.0,24.0,12.0,29.0,24.0,34.0,35.0,40.0,43.0,46.0,45.0,5.0
378,60,0,99.0,4.147,1.0,60.5,7.0,92.0,9.0,16.0,11.0,18.0,8.0,31.0,0.0,14.0,44.0,37.0,45.0,59.0,27.0,5.0
379,60,30,98.0,4.52,1.0,42.0,7.0,91.0,9.0,16.0,11.0,18.0,8.0,31.0,0.0,14.0,44.0,37.0,45.0,59.0,27.0,5.0
380,60,60,96.0,4.394,1.0,51.0,7.0,89.0,9.0,16.0,11.0,18.0,8.0,31.0,0.0,14.0,44.0,37.0,45.0,59.0,27.0,5.0
381,60,90,81.0,4.109999999999999,1.0,35.0,7.0,74.0,9.0,16.0,11.0,18.0,8.0,31.0,0.0,14.0,44.0,37.0,45.0,59.0,27.0,5.0
382,60,120,38.0,4.458,1.0,35.5,7.0,31.0,9.0,16.0,11.0,18.0,8.0,31.0,0.0,14.0,44.0,37.0,45.0,59.0,27.0,5.0
383,60,150,21.5,4.003500000000001,1.0,34.0,7.0,14.5,9.0,16.0,11.0,18.0,8.0,31.0,0.0,14.0,44.0,37.0,45.0,59.0,27.0,5.0
384,60,180,7.0,4.2295,1.0,46.0,7.0,0.0,9.0,16.0,11.0,18.0,8.0,31.0,0.0,14.0,44.0,37.0,45.0,59.0,27.0,5.0
385,61,0,82.5,3.402,1.0,43.0,27.5,55.0,8.0,15.0,10.0,19.0,5.0,16.0,2.0,40.0,44.0,37.0,49.0,46.0,35.888888888888886,5.0
386,61,30,90.0,3.154,1.0,44.0,27.5,62.5,8.0,15.0,10.0,19.0,5.0,16.0,2.0,40.0,44.0,37.0,49.0,46.0,35.888888888888886,5.0
387,61,60,78.0,2.7439999999999998,1.0,30.5,27.5,50.5,8.0,15.0,10.0,19.0,5.0,16.0,2.0,40.0,44.0,37.0,49.0,46.0,35.888888888888886,5.0
388,61,90,75.0,2.7350000000000003,1.0,44.5,27.5,47.5,8.0,15.0,10.0,19.0,5.0,16.0,2.0,40.0,44.0,37.0,49.0,46.0,35.888888888888886,5.0
389,61,120,44.0,3.0095,1.0,31.5,27.5,16.5,8.0,15.0,10.0,19.0,5.0,16.0,2.0,40.0,44.0,37.0,49.0,46.0,35.888888888888886,5.0
390,61,150,31.0,3.182,1.0,37.0,27.5,3.5,8.0,15.0,10.0,19.0,5.0,16.0,2.0,40.0,44.0,37.0,49.0,46.0,35.888888888888886,5.0
391,61,180,27.5,3.083,0.5,57.0,27.5,0.0,8.0,15.0,10.0,19.0,5.0,16.0,2.0,40.0,44.0,37.0,49.0,46.0,35.888888888888886,5.0
392,62,0,100.0,3.181,1.0,51.5,0.0,100.0,24.0,19.0,21.0,6.0,20.0,20.0,13.0,43.0,31.0,38.0,45.0,34.0,46.0,7.0
393,62,30,99.0,3.1895,1.0,52.5,0.0,99.0,24.0,19.0,21.0,6.0,20.0,20.0,13.0,43.0,31.0,38.0,45.0,34.0,46.0,7.0
394,62,60,91.5,3.468,1.0,36.5,0.0,91.5,24.0,19.0,21.0,6.0,20.0,20.0,13.0,43.0,31.0,38.0,45.0,34.0,46.0,7.0
395,62,90,64.0,3.5665,1.0,31.5,0.0,64.0,24.0,19.0,21.0,6.0,20.0,20.0,13.0,43.0,31.0,38.0,45.0,34.0,46.0,7.0
396,62,120,23.0,4.6235,1.0,34.0,0.0,23.0,24.0,19.0,21.0,6.0,20.0,20.0,13.0,43.0,31.0,38.0,45.0,34.0,46.0,7.0
397,62,150,0.0,3.552,0.5,35.5,0.0,0.0,24.0,19.0,21.0,6.0,20.0,20.0,13.0,43.0,31.0,38.0,45.0,34.0,46.0,7.0
398,62,180,0.0,2.9535,1.0,44.5,0.0,0.0,24.0,19.0,21.0,6.0,20.0,20.0,13.0,43.0,31.0,38.0,45.0,34.0,46.0,7.0
399,63,0,100.0,3.471,1.0,34.0,2.0,98.0,19.0,24.0,14.0,26.0,16.0,11.0,24.0,53.0,19.0,40.0,45.0,36.0,58.0,2.0
400,63,30,99.0,3.8689999999999998,1.0,48.5,2.0,97.0,19.0,24.0,14.0,26.0,16.0,11.0,24.0,53.0,19.0,40.0,45.0,36.0,58.0,2.0
401,63,60,95.5,3.9545000000000003,1.0,57.0,2.0,93.5,19.0,24.0,14.0,26.0,16.0,11.0,24.0,53.0,19.0,40.0,45.0,36.0,58.0,2.0
402,63,90,84.5,4.1515,1.0,51.5,2.0,82.5,19.0,24.0,14.0,26.0,16.0,11.0,24.0,53.0,19.0,40.0,45.0,36.0,58.0,2.0
403,63,120,21.5,4.7219999999999995,1.0,37.5,2.0,19.5,19.0,24.0,14.0,26.0,16.0,11.0,24.0,53.0,19.0,40.0,45.0,36.0,58.0,2.0
404,63,150,4.0,5.082,1.0,37.0,2.0,2.0,19.0,24.0,14.0,26.0,16.0,11.0,24.0,53.0,19.0,40.0,45.0,36.0,58.0,2.0
405,63,180,2.0,4.785,0.0,38.5,2.0,0.0,19.0,24.0,14.0,26.0,16.0,11.0,24.0,53.0,19.0,40.0,45.0,36.0,58.0,2.0
406,64,0,97.0,3.4695,1.0,54.0,13.0,84.0,18.0,18.0,16.0,16.0,13.0,9.0,21.0,53.0,24.0,35.0,42.0,30.0,68.0,1.0
407,64,30,97.0,3.356,1.0,42.0,13.0,84.0,18.0,18.0,16.0,16.0,13.0,9.0,21.0,53.0,24.0,35.0,42.0,30.0,68.0,1.0
408,64,60,96.5,3.4185,1.0,33.5,13.0,83.5,18.0,18.0,16.0,16.0,13.0,9.0,21.0,53.0,24.0,35.0,42.0,30.0,68.0,1.0
409,64,90,92.0,4.0535,1.0,41.5,13.0,79.0,18.0,18.0,16.0,16.0,13.0,9.0,21.0,53.0,24.0,35.0,42.0,30.0,68.0,1.0
410,64,120,20.0,4.532500000000001,1.0,27.5,13.0,7.0,18.0,18.0,16.0,16.0,13.0,9.0,21.0,53.0,24.0,35.0,42.0,30.0,68.0,1.0
411,64,150,8.0,4.111,1.0,42.5,13.0,-5.0,18.0,18.0,16.0,16.0,13.0,9.0,21.0,53.0,24.0,35.0,42.0,30.0,68.0,1.0
412,64,180,13.0,4.135,0.0,52.5,13.0,0.0,18.0,18.0,16.0,16.0,13.0,9.0,21.0,53.0,24.0,35.0,42.0,30.0,68.0,1.0
413,65,0,88.5,1.923,1.0,54.5,25.0,63.5,9.0,6.0,9.0,11.0,2.0,33.0,1.0,24.0,46.0,45.0,47.0,55.0,23.0,2.0
414,65,30,84.0,1.8685,1.0,42.0,25.0,59.0,9.0,6.0,9.0,11.0,2.0,33.0,1.0,24.0,46.0,45.0,47.0,55.0,23.0,2.0
415,65,60,79.5,2.0755,1.0,40.0,25.0,54.5,9.0,6.0,9.0,11.0,2.0,33.0,1.0,24.0,46.0,45.0,47.0,55.0,23.0,2.0
416,65,90,71.5,2.0595,1.0,33.5,25.0,46.5,9.0,6.0,9.0,11.0,2.0,33.0,1.0,24.0,46.0,45.0,47.0,55.0,23.0,2.0
417,65,120,28.5,2.5084999999999997,1.0,47.0,25.0,3.5,9.0,6.0,9.0,11.0,2.0,33.0,1.0,24.0,46.0,45.0,47.0,55.0,23.0,2.0
418,65,150,18.0,2.6734999999999998,0.5,41.5,25.0,-7.0,9.0,6.0,9.0,11.0,2.0,33.0,1.0,24.0,46.0,45.0,47.0,55.0,23.0,2.0
419,65,180,25.0,2.662,1.0,21.0,25.0,0.0,9.0,6.0,9.0,11.0,2.0,33.0,1.0,24.0,46.0,45.0,47.0,55.0,23.0,2.0
420,66,0,100.0,2.753,1.0,42.0,11.0,89.0,9.0,17.0,14.0,11.0,9.0,15.0,8.0,39.0,29.0,39.0,35.0,41.0,53.0,10.0
421,66,30,93.5,3.0605,1.0,32.0,11.0,82.5,9.0,17.0,14.0,11.0,9.0,15.0,8.0,39.0,29.0,39.0,35.0,41.0,53.0,10.0
422,66,60,87.5,2.727,1.0,48.5,11.0,76.5,9.0,17.0,14.0,11.0,9.0,15.0,8.0,39.0,29.0,39.0,35.0,41.0,53.0,10.0
423,66,90,71.5,2.6685,1.0,41.5,11.0,60.5,9.0,17.0,14.0,11.0,9.0,15.0,8.0,39.0,29.0,39.0,35.0,41.0,53.0,10.0
424,66,120,22.5,2.653,1.0,37.0,11.0,11.5,9.0,17.0,14.0,11.0,9.0,15.0,8.0,39.0,29.0,39.0,35.0,41.0,53.0,10.0
425,66,150,24.0,2.7015000000000002,0.0,50.0,11.0,13.0,9.0,17.0,14.0,11.0,9.0,15.0,8.0,39.0,29.0,39.0,35.0,41.0,53.0,10.0
426,66,180,11.0,2.9074999999999998,1.0,45.5,11.0,0.0,9.0,17.0,14.0,11.0,9.0,15.0,8.0,39.0,29.0,39.0,35.0,41.0,53.0,10.0
427,69,0,91.5,2.3310000000000004,1.0,42.0,16.0,75.5,19.0,22.0,17.0,24.0,18.0,7.0,8.0,36.0,17.0,45.0,42.0,45.0,52.0,1.0
428,69,30,93.0,2.1745,1.0,62.5,16.0,77.0,19.0,22.0,17.0,24.0,18.0,7.0,8.0,36.0,17.0,45.0,42.0,45.0,52.0,1.0
429,69,60,84.0,2.3895,1.0,35.0,16.0,68.0,19.0,22.0,17.0,24.0,18.0,7.0,8.0,36.0,17.0,45.0,42.0,45.0,52.0,1.0
430,69,90,72.0,2.474,1.0,48.5,16.0,56.0,19.0,22.0,17.0,24.0,18.0,7.0,8.0,36.0,17.0,45.0,42.0,45.0,52.0,1.0
431,69,120,53.5,3.2955,1.0,25.5,16.0,37.5,19.0,22.0,17.0,24.0,18.0,7.0,8.0,36.0,17.0,45.0,42.0,45.0,52.0,1.0
432,69,150,20.0,3.1595000000000004,1.0,40.0,16.0,4.0,19.0,22.0,17.0,24.0,18.0,7.0,8.0,36.0,17.0,45.0,42.0,45.0,52.0,1.0
433,69,180,16.0,2.6639999999999997,0.0,46.5,16.0,0.0,19.0,22.0,17.0,24.0,18.0,7.0,8.0,36.0,17.0,45.0,42.0,45.0,52.0,1.0
434,70,0,99.5,3.809,1.0,21.5,0.5,99.0,24.0,15.0,10.0,17.0,11.0,6.0,1.0,42.0,30.0,42.0,45.0,42.0,44.0,3.0
435,70,30,95.5,3.6135,1.0,60.5,0.5,95.0,24.0,15.0,10.0,17.0,11.0,6.0,1.0,42.0,30.0,42.0,45.0,42.0,44.0,3.0
436,70,60,94.5,3.5620000000000003,1.0,43.5,0.5,94.0,24.0,15.0,10.0,17.0,11.0,6.0,1.0,42.0,30.0,42.0,45.0,42.0,44.0,3.0
437,70,90,66.5,3.591,1.0,40.0,0.5,66.0,24.0,15.0,10.0,17.0,11.0,6.0,1.0,42.0,30.0,42.0,45.0,42.0,44.0,3.0
438,70,120,2.0,4.220000000000001,1.0,48.0,0.5,1.5,24.0,15.0,10.0,17.0,11.0,6.0,1.0,42.0,30.0,42.0,45.0,42.0,44.0,3.0
439,70,150,1.0,3.7775,0.0,43.0,0.5,0.5,24.0,15.0,10.0,17.0,11.0,6.0,1.0,42.0,30.0,42.0,45.0,42.0,44.0,3.0
440,70,180,0.5,3.7329999999999997,0.0,40.0,0.5,0.0,24.0,15.0,10.0,17.0,11.0,6.0,1.0,42.0,30.0,42.0,45.0,42.0,44.0,3.0
441,71,0,100.0,2.294,1.0,53.5,28.5,71.5,7.0,13.0,14.0,18.0,10.0,25.0,6.0,33.0,45.81818181818182,33.0,47.0,42.0,45.0,8.0
442,71,30,93.0,2.896,1.0,36.5,28.5,64.5,7.0,13.0,14.0,18.0,10.0,25.0,6.0,33.0,45.81818181818182,33.0,47.0,42.0,45.0,8.0
443,71,60,83.0,2.4299999999999997,1.0,53.0,28.5,54.5,7.0,13.0,14.0,18.0,10.0,25.0,6.0,33.0,45.81818181818182,33.0,47.0,42.0,45.0,8.0
444,71,90,66.0,2.5620000000000003,1.0,40.0,28.5,37.5,7.0,13.0,14.0,18.0,10.0,25.0,6.0,33.0,45.81818181818182,33.0,47.0,42.0,45.0,8.0
445,71,120,50.0,3.192,1.0,26.5,28.5,21.5,7.0,13.0,14.0,18.0,10.0,25.0,6.0,33.0,45.81818181818182,33.0,47.0,42.0,45.0,8.0
446,71,150,43.5,3.185,1.0,45.5,28.5,15.0,7.0,13.0,14.0,18.0,10.0,25.0,6.0,33.0,45.81818181818182,33.0,47.0,42.0,45.0,8.0
447,71,180,28.5,3.121,1.0,39.5,28.5,0.0,7.0,13.0,14.0,18.0,10.0,25.0,6.0,33.0,45.81818181818182,33.0,47.0,42.0,45.0,8.0
448,72,0,95.5,4.015499999999999,1.0,36.5,14.5,81.0,14.0,20.0,12.0,20.0,12.0,17.0,11.0,52.0,31.0,48.0,47.0,36.0,47.0,5.0
449,72,30,91.0,3.3825000000000003,1.0,26.0,14.5,76.5,14.0,20.0,12.0,20.0,12.0,17.0,11.0,52.0,31.0,48.0,47.0,36.0,47.0,5.0
450,72,60,87.5,3.7095000000000002,1.0,31.5,14.5,73.0,14.0,20.0,12.0,20.0,12.0,17.0,11.0,52.0,31.0,48.0,47.0,36.0,47.0,5.0
451,72,90,55.0,3.888,1.0,29.5,14.5,40.5,14.0,20.0,12.0,20.0,12.0,17.0,11.0,52.0,31.0,48.0,47.0,36.0,47.0,5.0
452,72,120,23.0,4.541,1.0,49.5,14.5,8.5,14.0,20.0,12.0,20.0,12.0,17.0,11.0,52.0,31.0,48.0,47.0,36.0,47.0,5.0
453,72,150,19.5,3.7995,1.0,60.0,14.5,5.0,14.0,20.0,12.0,20.0,12.0,17.0,11.0,52.0,31.0,48.0,47.0,36.0,47.0,5.0
454,72,180,14.5,4.752,1.0,52.5,14.5,0.0,14.0,20.0,12.0,20.0,12.0,17.0,11.0,52.0,31.0,48.0,47.0,36.0,47.0,5.0
455,73,0,100.0,3.378,1.0,51.0,10.0,90.0,7.0,9.0,16.0,18.0,10.0,20.0,2.0,14.0,37.0,36.0,40.0,43.0,27.0,6.0
456,73,30,99.0,3.65,1.0,35.5,10.0,89.0,7.0,9.0,16.0,18.0,10.0,20.0,2.0,14.0,37.0,36.0,40.0,43.0,27.0,6.0
457,73,60,100.0,3.4275,1.0,44.0,10.0,90.0,7.0,9.0,16.0,18.0,10.0,20.0,2.0,14.0,37.0,36.0,40.0,43.0,27.0,6.0
458,73,90,76.0,3.1645,1.0,49.0,10.0,66.0,7.0,9.0,16.0,18.0,10.0,20.0,2.0,14.0,37.0,36.0,40.0,43.0,27.0,6.0
459,73,120,31.0,3.375,1.0,37.0,10.0,21.0,7.0,9.0,16.0,18.0,10.0,20.0,2.0,14.0,37.0,36.0,40.0,43.0,27.0,6.0
460,73,150,12.0,3.548,0.5,42.5,10.0,2.0,7.0,9.0,16.0,18.0,10.0,20.0,2.0,14.0,37.0,36.0,40.0,43.0,27.0,6.0
461,73,180,10.0,3.6835,1.0,38.0,10.0,0.0,7.0,9.0,16.0,18.0,10.0,20.0,2.0,14.0,37.0,36.0,40.0,43.0,27.0,6.0
462,74,0,91.0,3.2055,1.0,48.5,10.0,81.0,16.0,16.0,10.0,15.0,17.0,16.0,1.0,40.0,30.0,39.0,42.0,34.0,54.0,2.0
463,74,30,85.0,3.747,1.0,48.0,10.0,75.0,16.0,16.0,10.0,15.0,17.0,16.0,1.0,40.0,30.0,39.0,42.0,34.0,54.0,2.0
464,74,60,69.5,3.463,1.0,66.0,10.0,59.5,16.0,16.0,10.0,15.0,17.0,16.0,1.0,40.0,30.0,39.0,42.0,34.0,54.0,2.0
465,74,90,80.0,3.6775,1.0,34.0,10.0,70.0,16.0,16.0,10.0,15.0,17.0,16.0,1.0,40.0,30.0,39.0,42.0,34.0,54.0,2.0
466,74,120,55.5,4.102,1.0,20.0,10.0,45.5,16.0,16.0,10.0,15.0,17.0,16.0,1.0,40.0,30.0,39.0,42.0,34.0,54.0,2.0
467,74,150,12.5,3.999,1.0,37.0,10.0,2.5,16.0,16.0,10.0,15.0,17.0,16.0,1.0,40.0,30.0,39.0,42.0,34.0,54.0,2.0
468,74,180,10.0,4.401,0.5,42.5,10.0,0.0,16.0,16.0,10.0,15.0,17.0,16.0,1.0,40.0,30.0,39.0,42.0,34.0,54.0,2.0
469,75,0,98.5,2.8605,1.0,39.0,5.0,93.5,28.0,22.0,10.0,7.0,19.0,7.0,17.0,53.0,21.0,33.0,37.0,32.0,69.0,2.0
470,75,30,98.0,2.5585,1.0,44.5,5.0,93.0,28.0,22.0,10.0,7.0,19.0,7.0,17.0,53.0,21.0,33.0,37.0,32.0,69.0,2.0
471,75,60,97.5,2.8445,1.0,28.5,5.0,92.5,28.0,22.0,10.0,7.0,19.0,7.0,17.0,53.0,21.0,33.0,37.0,32.0,69.0,2.0
472,75,90,83.0,2.721,1.0,48.5,5.0,78.0,28.0,22.0,10.0,7.0,19.0,7.0,17.0,53.0,21.0,33.0,37.0,32.0,69.0,2.0
473,75,120,10.0,2.5564999999999998,1.0,43.5,5.0,5.0,28.0,22.0,10.0,7.0,19.0,7.0,17.0,53.0,21.0,33.0,37.0,32.0,69.0,2.0
474,75,150,5.0,2.987,1.0,35.5,5.0,0.0,28.0,22.0,10.0,7.0,19.0,7.0,17.0,53.0,21.0,33.0,37.0,32.0,69.0,2.0
475,75,180,5.0,2.7735,1.0,50.0,5.0,0.0,28.0,22.0,10.0,7.0,19.0,7.0,17.0,53.0,21.0,33.0,37.0,32.0,69.0,2.0
476,76,0,100.0,2.2065,1.0,56.5,0.0,100.0,23.0,20.0,10.0,15.0,11.0,20.0,6.0,25.0,17.0,42.0,36.0,46.0,62.0,3.0
477,76,30,100.0,2.248,1.0,40.5,0.0,100.0,23.0,20.0,10.0,15.0,11.0,20.0,6.0,25.0,17.0,42.0,36.0,46.0,62.0,3.0
478,76,60,100.0,2.0780000000000003,1.0,41.5,0.0,100.0,23.0,20.0,10.0,15.0,11.0,20.0,6.0,25.0,17.0,42.0,36.0,46.0,62.0,3.0
479,76,90,100.0,2.1944999999999997,1.0,35.5,0.0,100.0,23.0,20.0,10.0,15.0,11.0,20.0,6.0,25.0,17.0,42.0,36.0,46.0,62.0,3.0
480,76,120,74.0,3.2525,1.0,23.0,0.0,74.0,23.0,20.0,10.0,15.0,11.0,20.0,6.0,25.0,17.0,42.0,36.0,46.0,62.0,3.0
481,76,150,41.5,3.189,1.0,49.0,0.0,41.5,23.0,20.0,10.0,15.0,11.0,20.0,6.0,25.0,17.0,42.0,36.0,46.0,62.0,3.0
482,76,180,0.0,3.0905,0.5,48.0,0.0,0.0,23.0,20.0,10.0,15.0,11.0,20.0,6.0,25.0,17.0,42.0,36.0,46.0,62.0,3.0
483,77,0,66.0,3.2035,1.0,33.5,36.0,30.0,17.0,15.0,12.0,16.0,15.0,14.0,9.0,39.0,27.0,30.0,40.0,40.0,41.0,5.0
484,77,30,63.0,3.0309999999999997,1.0,43.5,36.0,27.0,17.0,15.0,12.0,16.0,15.0,14.0,9.0,39.0,27.0,30.0,40.0,40.0,41.0,5.0
485,77,60,59.5,3.078,1.0,47.5,36.0,23.5,17.0,15.0,12.0,16.0,15.0,14.0,9.0,39.0,27.0,30.0,40.0,40.0,41.0,5.0
486,77,90,56.0,3.099,1.0,43.0,36.0,20.0,17.0,15.0,12.0,16.0,15.0,14.0,9.0,39.0,27.0,30.0,40.0,40.0,41.0,5.0
487,77,120,39.0,3.0125,1.0,41.0,36.0,3.0,17.0,15.0,12.0,16.0,15.0,14.0,9.0,39.0,27.0,30.0,40.0,40.0,41.0,5.0
488,77,150,38.0,3.401,1.0,32.0,36.0,2.0,17.0,15.0,12.0,16.0,15.0,14.0,9.0,39.0,27.0,30.0,40.0,40.0,41.0,5.0
489,77,180,36.0,3.123,1.0,41.5,36.0,0.0,17.0,15.0,12.0,16.0,15.0,14.0,9.0,39.0,27.0,30.0,40.0,40.0,41.0,5.0
490,78,0,85.0,3.652,1.0,29.0,29.5,55.5,8.0,15.0,6.0,22.0,5.0,26.0,1.0,25.0,43.0,36.0,43.0,54.0,26.0,8.0
491,78,30,83.5,3.485,1.0,40.5,29.5,54.0,8.0,15.0,6.0,22.0,5.0,26.0,1.0,25.0,43.0,36.0,43.0,54.0,26.0,8.0
492,78,60,75.5,3.057,1.0,57.0,29.5,46.0,8.0,15.0,6.0,22.0,5.0,26.0,1.0,25.0,43.0,36.0,43.0,54.0,26.0,8.0
493,78,90,64.5,3.4915000000000003,1.0,43.0,29.5,35.0,8.0,15.0,6.0,22.0,5.0,26.0,1.0,25.0,43.0,36.0,43.0,54.0,26.0,8.0
494,78,120,48.0,4.2145,1.0,20.5,29.5,18.5,8.0,15.0,6.0,22.0,5.0,26.0,1.0,25.0,43.0,36.0,43.0,54.0,26.0,8.0
495,78,150,25.0,3.685,0.5,44.0,29.5,-4.5,8.0,15.0,6.0,22.0,5.0,26.0,1.0,25.0,43.0,36.0,43.0,54.0,26.0,8.0
496,78,180,29.5,3.3,0.5,60.5,29.5,0.0,8.0,15.0,6.0,22.0,5.0,26.0,1.0,25.0,43.0,36.0,43.0,54.0,26.0,8.0
497,81,0,99.5,3.3265000000000002,1.0,31.0,7.0,92.5,13.0,10.0,8.0,7.0,3.333333333333333,13.0,7.0,45.0,27.0,44.0,45.0,27.0,43.0,4.0
498,81,30,100.0,3.2125000000000004,1.0,33.5,7.0,93.0,13.0,10.0,8.0,7.0,3.333333333333333,13.0,7.0,45.0,27.0,44.0,45.0,27.0,43.0,4.0
499,81,60,97.5,3.132,1.0,49.0,7.0,90.5,13.0,10.0,8.0,7.0,3.333333333333333,13.0,7.0,45.0,27.0,44.0,45.0,27.0,43.0,4.0
500,81,90,90.5,3.0090000000000003,1.0,54.0,7.0,83.5,13.0,10.0,8.0,7.0,3.333333333333333,13.0,7.0,45.0,27.0,44.0,45.0,27.0,43.0,4.0
501,81,120,67.5,2.8535,1.0,40.0,7.0,60.5,13.0,10.0,8.0,7.0,3.333333333333333,13.0,7.0,45.0,27.0,44.0,45.0,27.0,43.0,4.0
502,81,150,44.5,3.732,1.0,24.5,7.0,37.5,13.0,10.0,8.0,7.0,3.333333333333333,13.0,7.0,45.0,27.0,44.0,45.0,27.0,43.0,4.0
503,81,180,7.0,3.2275,0.5,55.0,7.0,0.0,13.0,10.0,8.0,7.0,3.333333333333333,13.0,7.0,45.0,27.0,44.0,45.0,27.0,43.0,4.0
504,82,0,89.5,1.794,1.0,51.0,19.5,70.0,10.0,8.0,8.0,15.0,11.0,19.0,0.0,26.0,45.0,42.0,47.0,42.0,39.0,4.0
505,82,30,90.5,1.8265,1.0,48.5,19.5,71.0,10.0,8.0,8.0,15.0,11.0,19.0,0.0,26.0,45.0,42.0,47.0,42.0,39.0,4.0
506,82,60,90.5,1.8054999999999999,1.0,24.5,19.5,71.0,10.0,8.0,8.0,15.0,11.0,19.0,0.0,26.0,45.0,42.0,47.0,42.0,39.0,4.0
507,82,90,88.0,1.883,1.0,41.0,19.5,68.5,10.0,8.0,8.0,15.0,11.0,19.0,0.0,26.0,45.0,42.0,47.0,42.0,39.0,4.0
508,82,120,64.0,2.0995,1.0,24.0,19.5,44.5,10.0,8.0,8.0,15.0,11.0,19.0,0.0,26.0,45.0,42.0,47.0,42.0,39.0,4.0
509,82,150,37.5,2.1544999999999996,1.0,40.0,19.5,18.0,10.0,8.0,8.0,15.0,11.0,19.0,0.0,26.0,45.0,42.0,47.0,42.0,39.0,4.0
510,82,180,19.5,2.2835,1.0,38.0,19.5,0.0,10.0,8.0,8.0,15.0,11.0,19.0,0.0,26.0,45.0,42.0,47.0,42.0,39.0,4.0
511,83,0,98.0,3.384,1.0,44.5,8.5,89.5,12.0,12.0,11.0,18.0,8.0,22.0,8.0,39.0,34.0,46.0,42.0,36.0,52.0,2.0
512,83,30,97.0,3.4005,1.0,49.5,8.5,88.5,12.0,12.0,11.0,18.0,8.0,22.0,8.0,39.0,34.0,46.0,42.0,36.0,52.0,2.0
513,83,60,96.5,3.2504999999999997,1.0,39.0,8.5,88.0,12.0,12.0,11.0,18.0,8.0,22.0,8.0,39.0,34.0,46.0,42.0,36.0,52.0,2.0
514,83,90,87.0,3.2424999999999997,1.0,30.0,8.5,78.5,12.0,12.0,11.0,18.0,8.0,22.0,8.0,39.0,34.0,46.0,42.0,36.0,52.0,2.0
515,83,120,32.0,3.392,1.0,54.0,8.5,23.5,12.0,12.0,11.0,18.0,8.0,22.0,8.0,39.0,34.0,46.0,42.0,36.0,52.0,2.0
516,83,150,13.5,3.5575,1.0,30.5,8.5,5.0,12.0,12.0,11.0,18.0,8.0,22.0,8.0,39.0,34.0,46.0,42.0,36.0,52.0,2.0
517,83,180,8.5,3.6595,1.0,57.0,8.5,0.0,12.0,12.0,11.0,18.0,8.0,22.0,8.0,39.0,34.0,46.0,42.0,36.0,52.0,2.0
518,84,0,100.0,3.4850000000000003,1.0,25.5,0.0,100.0,4.0,12.0,11.0,14.0,2.0,31.0,0.0,15.0,47.0,31.0,48.0,60.0,22.0,6.0
519,84,30,100.0,3.145,1.0,46.0,0.0,100.0,4.0,12.0,11.0,14.0,2.0,31.0,0.0,15.0,47.0,31.0,48.0,60.0,22.0,6.0
520,84,60,100.0,2.786,1.0,41.5,0.0,100.0,4.0,12.0,11.0,14.0,2.0,31.0,0.0,15.0,47.0,31.0,48.0,60.0,22.0,6.0
521,84,90,100.0,3.1635,1.0,38.5,0.0,100.0,4.0,12.0,11.0,14.0,2.0,31.0,0.0,15.0,47.0,31.0,48.0,60.0,22.0,6.0
522,84,120,33.5,3.3325,1.0,57.5,0.0,33.5,4.0,12.0,11.0,14.0,2.0,31.0,0.0,15.0,47.0,31.0,48.0,60.0,22.0,6.0
523,84,150,0.5,3.3335,1.0,25.0,0.0,0.5,4.0,12.0,11.0,14.0,2.0,31.0,0.0,15.0,47.0,31.0,48.0,60.0,22.0,6.0
524,84,180,0.0,3.1775,0.0,39.5,0.0,0.0,4.0,12.0,11.0,14.0,2.0,31.0,0.0,15.0,47.0,31.0,48.0,60.0,22.0,6.0
525,85,0,100.0,2.255,1.0,39.0,0.0,100.0,25.0,12.0,10.0,13.0,16.0,26.0,5.0,28.0,38.0,43.0,40.0,45.0,53.0,4.0
526,85,30,100.0,2.3205,1.0,48.5,0.0,100.0,25.0,12.0,10.0,13.0,16.0,26.0,5.0,28.0,38.0,43.0,40.0,45.0,53.0,4.0
527,85,60,100.0,2.2945,1.0,39.0,0.0,100.0,25.0,12.0,10.0,13.0,16.0,26.0,5.0,28.0,38.0,43.0,40.0,45.0,53.0,4.0
528,85,90,68.0,2.4735,1.0,41.0,0.0,68.0,25.0,12.0,10.0,13.0,16.0,26.0,5.0,28.0,38.0,43.0,40.0,45.0,53.0,4.0
529,85,120,0.0,2.32,1.0,62.5,0.0,0.0,25.0,12.0,10.0,13.0,16.0,26.0,5.0,28.0,38.0,43.0,40.0,45.0,53.0,4.0
530,85,150,0.0,2.3185000000000002,1.0,41.5,0.0,0.0,25.0,12.0,10.0,13.0,16.0,26.0,5.0,28.0,38.0,43.0,40.0,45.0,53.0,4.0
531,85,180,0.0,2.3085,0.0,22.0,0.0,0.0,25.0,12.0,10.0,13.0,16.0,26.0,5.0,28.0,38.0,43.0,40.0,45.0,53.0,4.0
532,86,0,89.0,2.7055,1.0,37.0,15.0,74.0,6.0,8.0,4.0,16.0,7.0,28.0,3.0,23.0,43.0,44.0,49.0,41.0,33.0,5.0
533,86,30,84.5,2.637,1.0,43.5,15.0,69.5,6.0,8.0,4.0,16.0,7.0,28.0,3.0,23.0,43.0,44.0,49.0,41.0,33.0,5.0
534,86,60,71.5,2.5435,1.0,41.0,15.0,56.5,6.0,8.0,4.0,16.0,7.0,28.0,3.0,23.0,43.0,44.0,49.0,41.0,33.0,5.0
535,86,90,59.5,2.4139999999999997,1.0,44.0,15.0,44.5,6.0,8.0,4.0,16.0,7.0,28.0,3.0,23.0,43.0,44.0,49.0,41.0,33.0,5.0
536,86,120,32.5,2.5735,1.0,40.5,15.0,17.5,6.0,8.0,4.0,16.0,7.0,28.0,3.0,23.0,43.0,44.0,49.0,41.0,33.0,5.0
537,86,150,17.5,2.7375,1.0,35.0,15.0,2.5,6.0,8.0,4.0,16.0,7.0,28.0,3.0,23.0,43.0,44.0,49.0,41.0,33.0,5.0
538,86,180,15.0,2.6525,1.0,58.0,15.0,0.0,6.0,8.0,4.0,16.0,7.0,28.0,3.0,23.0,43.0,44.0,49.0,41.0,33.0,5.0
539,87,0,82.0,2.475,1.0,24.0,47.0,35.0,12.0,16.0,14.0,16.0,12.0,26.0,12.0,43.0,39.0,35.0,39.0,42.0,47.0,5.0
540,87,30,75.0,2.629,1.0,50.5,47.0,28.0,12.0,16.0,14.0,16.0,12.0,26.0,12.0,43.0,39.0,35.0,39.0,42.0,47.0,5.0
541,87,60,79.0,2.5045,1.0,41.5,47.0,32.0,12.0,16.0,14.0,16.0,12.0,26.0,12.0,43.0,39.0,35.0,39.0,42.0,47.0,5.0
542,87,90,74.0,2.5495,1.0,49.5,47.0,27.0,12.0,16.0,14.0,16.0,12.0,26.0,12.0,43.0,39.0,35.0,39.0,42.0,47.0,5.0
543,87,120,65.0,2.5605,1.0,31.5,47.0,18.0,12.0,16.0,14.0,16.0,12.0,26.0,12.0,43.0,39.0,35.0,39.0,42.0,47.0,5.0
544,87,150,49.0,2.5425,1.0,39.0,47.0,2.0,12.0,16.0,14.0,16.0,12.0,26.0,12.0,43.0,39.0,35.0,39.0,42.0,47.0,5.0
545,87,180,47.0,2.652,0.0,46.5,47.0,0.0,12.0,16.0,14.0,16.0,12.0,26.0,12.0,43.0,39.0,35.0,39.0,42.0,47.0,5.0
546,88,0,99.0,2.3285,1.0,40.0,28.0,71.0,23.0,19.0,8.0,19.0,20.0,24.0,11.0,60.0,33.0,54.0,39.0,34.0,56.0,3.0
547,88,30,96.5,2.6710000000000003,1.0,28.5,28.0,68.5,23.0,19.0,8.0,19.0,20.0,24.0,11.0,60.0,33.0,54.0,39.0,34.0,56.0,3.0
548,88,60,93.0,3.4975,1.0,45.0,28.0,65.0,23.0,19.0,8.0,19.0,20.0,24.0,11.0,60.0,33.0,54.0,39.0,34.0,56.0,3.0
549,88,90,93.0,2.4645,1.0,44.5,28.0,65.0,23.0,19.0,8.0,19.0,20.0,24.0,11.0,60.0,33.0,54.0,39.0,34.0,56.0,3.0
550,88,120,49.0,2.4284999999999997,1.0,42.0,28.0,21.0,23.0,19.0,8.0,19.0,20.0,24.0,11.0,60.0,33.0,54.0,39.0,34.0,56.0,3.0
551,88,150,27.0,2.7279999999999998,1.0,33.5,28.0,-1.0,23.0,19.0,8.0,19.0,20.0,24.0,11.0,60.0,33.0,54.0,39.0,34.0,56.0,3.0
552,88,180,28.0,2.609,0.0,52.0,28.0,0.0,23.0,19.0,8.0,19.0,20.0,24.0,11.0,60.0,33.0,54.0,39.0,34.0,56.0,3.0
553,89,0,94.0,4.564,1.0,41.0,4.0,90.0,19.0,18.0,10.0,15.0,10.0,24.0,10.0,30.0,29.0,41.0,49.0,48.0,41.0,5.0
554,89,30,90.0,5.7005,1.0,51.5,4.0,86.0,19.0,18.0,10.0,15.0,10.0,24.0,10.0,30.0,29.0,41.0,49.0,48.0,41.0,5.0
555,89,60,81.0,5.703,1.0,25.5,4.0,77.0,19.0,18.0,10.0,15.0,10.0,24.0,10.0,30.0,29.0,41.0,49.0,48.0,41.0,5.0
556,89,90,63.0,5.6075,0.5,47.0,4.0,59.0,19.0,18.0,10.0,15.0,10.0,24.0,10.0,30.0,29.0,41.0,49.0,48.0,41.0,5.0
557,89,120,11.0,4.8575,0.0,40.5,4.0,7.0,19.0,18.0,10.0,15.0,10.0,24.0,10.0,30.0,29.0,41.0,49.0,48.0,41.0,5.0
558,89,150,2.0,5.0344999999999995,0.0,52.0,4.0,-2.0,19.0,18.0,10.0,15.0,10.0,24.0,10.0,30.0,29.0,41.0,49.0,48.0,41.0,5.0
559,89,180,4.0,5.041499999999999,0.0,38.0,4.0,0.0,19.0,18.0,10.0,15.0,10.0,24.0,10.0,30.0,29.0,41.0,49.0,48.0,41.0,5.0
560,90,0,99.0,3.037,1.0,53.5,10.0,89.0,21.0,10.0,3.0,10.0,8.0,23.0,3.0,18.0,33.0,40.0,41.0,48.0,34.0,0.0
561,90,30,100.0,4.330500000000001,1.0,29.0,10.0,90.0,21.0,10.0,3.0,10.0,8.0,23.0,3.0,18.0,33.0,40.0,41.0,48.0,34.0,0.0
562,90,60,95.0,2.686,1.0,71.5,10.0,85.0,21.0,10.0,3.0,10.0,8.0,23.0,3.0,18.0,33.0,40.0,41.0,48.0,34.0,0.0
563,90,90,81.5,2.7904999999999998,1.0,46.5,10.0,71.5,21.0,10.0,3.0,10.0,8.0,23.0,3.0,18.0,33.0,40.0,41.0,48.0,34.0,0.0
564,90,120,39.0,3.2965,1.0,33.5,10.0,29.0,21.0,10.0,3.0,10.0,8.0,23.0,3.0,18.0,33.0,40.0,41.0,48.0,34.0,0.0
565,90,150,18.0,3.0685000000000002,0.5,35.5,10.0,8.0,21.0,10.0,3.0,10.0,8.0,23.0,3.0,18.0,33.0,40.0,41.0,48.0,34.0,0.0
566,90,180,10.0,3.1645,1.0,33.0,10.0,0.0,21.0,10.0,3.0,10.0,8.0,23.0,3.0,18.0,33.0,40.0,41.0,48.0,34.0,0.0
567,92,0,66.5,1.9985,1.0,48.0,38.0,28.5,19.0,18.0,11.0,12.0,11.0,16.0,6.0,30.0,33.0,36.0,38.0,33.0,38.0,7.0
568,92,30,71.5,2.234,1.0,29.0,38.0,33.5,19.0,18.0,11.0,12.0,11.0,16.0,6.0,30.0,33.0,36.0,38.0,33.0,38.0,7.0
569,92,60,71.0,2.348,1.0,56.5,38.0,33.0,19.0,18.0,11.0,12.0,11.0,16.0,6.0,30.0,33.0,36.0,38.0,33.0,38.0,7.0
570,92,90,63.0,2.189,1.0,36.0,38.0,25.0,19.0,18.0,11.0,12.0,11.0,16.0,6.0,30.0,33.0,36.0,38.0,33.0,38.0,7.0
571,92,120,55.5,2.4335,1.0,31.0,38.0,17.5,19.0,18.0,11.0,12.0,11.0,16.0,6.0,30.0,33.0,36.0,38.0,33.0,38.0,7.0
572,92,150,32.5,2.4405,1.0,53.5,38.0,-5.5,19.0,18.0,11.0,12.0,11.0,16.0,6.0,30.0,33.0,36.0,38.0,33.0,38.0,7.0
573,92,180,38.0,2.5715000000000003,0.5,38.0,38.0,0.0,19.0,18.0,11.0,12.0,11.0,16.0,6.0,30.0,33.0,36.0,38.0,33.0,38.0,7.0
574,93,0,91.0,3.1875,1.0,32.5,13.5,77.5,9.0,13.0,2.0,7.0,2.0,14.0,1.0,26.0,44.0,37.0,46.0,58.0,34.0,10.0
575,93,30,92.0,3.755,1.0,31.0,13.5,78.5,9.0,13.0,2.0,7.0,2.0,14.0,1.0,26.0,44.0,37.0,46.0,58.0,34.0,10.0
576,93,60,85.5,3.1805,1.0,43.0,13.5,72.0,9.0,13.0,2.0,7.0,2.0,14.0,1.0,26.0,44.0,37.0,46.0,58.0,34.0,10.0
577,93,90,87.0,3.126,1.0,49.5,13.5,73.5,9.0,13.0,2.0,7.0,2.0,14.0,1.0,26.0,44.0,37.0,46.0,58.0,34.0,10.0
578,93,120,36.5,3.5645,1.0,56.5,13.5,23.0,9.0,13.0,2.0,7.0,2.0,14.0,1.0,26.0,44.0,37.0,46.0,58.0,34.0,10.0
579,93,150,10.5,3.495,1.0,37.0,13.5,-3.0,9.0,13.0,2.0,7.0,2.0,14.0,1.0,26.0,44.0,37.0,46.0,58.0,34.0,10.0
580,93,180,13.5,3.5015,0.5,30.5,13.5,0.0,9.0,13.0,2.0,7.0,2.0,14.0,1.0,26.0,44.0,37.0,46.0,58.0,34.0,10.0
581,94,0,87.0,3.6565000000000003,1.0,53.5,29.0,58.0,10.0,12.0,11.0,18.0,7.0,29.0,3.0,23.0,37.0,41.0,42.54545454545455,48.0,38.0,3.0
582,94,30,88.5,3.444,1.0,43.0,29.0,59.5,10.0,12.0,11.0,18.0,7.0,29.0,3.0,23.0,37.0,41.0,42.54545454545455,48.0,38.0,3.0
583,94,60,86.5,3.4215,1.0,42.0,29.0,57.5,10.0,12.0,11.0,18.0,7.0,29.0,3.0,23.0,37.0,41.0,42.54545454545455,48.0,38.0,3.0
584,94,90,68.0,3.5675,1.0,47.5,29.0,39.0,10.0,12.0,11.0,18.0,7.0,29.0,3.0,23.0,37.0,41.0,42.54545454545455,48.0,38.0,3.0
585,94,120,57.0,4.148,1.0,30.0,29.0,28.0,10.0,12.0,11.0,18.0,7.0,29.0,3.0,23.0,37.0,41.0,42.54545454545455,48.0,38.0,3.0
586,94,150,27.0,4.169499999999999,0.5,48.5,29.0,-2.0,10.0,12.0,11.0,18.0,7.0,29.0,3.0,23.0,37.0,41.0,42.54545454545455,48.0,38.0,3.0
587,94,180,29.0,4.2635000000000005,0.0,28.0,29.0,0.0,10.0,12.0,11.0,18.0,7.0,29.0,3.0,23.0,37.0,41.0,42.54545454545455,48.0,38.0,3.0
588,96,0,100.0,2.1254999999999997,1.0,46.0,22.5,77.5,18.0,17.0,5.0,13.0,4.0,26.0,0.0,26.0,34.0,44.0,47.0,55.0,31.0,2.0
589,96,30,100.0,2.0380000000000003,1.0,45.5,22.5,77.5,18.0,17.0,5.0,13.0,4.0,26.0,0.0,26.0,34.0,44.0,47.0,55.0,31.0,2.0
590,96,60,82.0,2.379,1.0,50.5,22.5,59.5,18.0,17.0,5.0,13.0,4.0,26.0,0.0,26.0,34.0,44.0,47.0,55.0,31.0,2.0
591,96,90,67.5,2.3289999999999997,1.0,45.5,22.5,45.0,18.0,17.0,5.0,13.0,4.0,26.0,0.0,26.0,34.0,44.0,47.0,55.0,31.0,2.0
592,96,120,50.0,3.1135,1.0,44.5,22.5,27.5,18.0,17.0,5.0,13.0,4.0,26.0,0.0,26.0,34.0,44.0,47.0,55.0,31.0,2.0
593,96,150,36.5,2.738,1.0,26.0,22.5,14.0,18.0,17.0,5.0,13.0,4.0,26.0,0.0,26.0,34.0,44.0,47.0,55.0,31.0,2.0
594,96,180,22.5,2.7750000000000004,1.0,46.0,22.5,0.0,18.0,17.0,5.0,13.0,4.0,26.0,0.0,26.0,34.0,44.0,47.0,55.0,31.0,2.0
595,97,0,87.0,4.301,1.0,36.0,9.0,78.0,19.0,20.0,18.0,16.0,11.0,9.0,20.0,46.90909090909091,21.0,37.0,40.0,32.72727272727273,70.0,0.0
596,97,30,87.0,4.842499999999999,1.0,42.5,9.0,78.0,19.0,20.0,18.0,16.0,11.0,9.0,20.0,46.90909090909091,21.0,37.0,40.0,32.72727272727273,70.0,0.0
597,97,60,79.5,4.9885,1.0,31.5,9.0,70.5,19.0,20.0,18.0,16.0,11.0,9.0,20.0,46.90909090909091,21.0,37.0,40.0,32.72727272727273,70.0,0.0
598,97,90,84.5,4.3995,1.0,37.5,9.0,75.5,19.0,20.0,18.0,16.0,11.0,9.0,20.0,46.90909090909091,21.0,37.0,40.0,32.72727272727273,70.0,0.0
599,97,120,63.0,6.043,1.0,57.5,9.0,54.0,19.0,20.0,18.0,16.0,11.0,9.0,20.0,46.90909090909091,21.0,37.0,40.0,32.72727272727273,70.0,0.0
600,97,150,16.0,4.7225,1.0,47.5,9.0,7.0,19.0,20.0,18.0,16.0,11.0,9.0,20.0,46.90909090909091,21.0,37.0,40.0,32.72727272727273,70.0,0.0
601,97,180,9.0,4.4965,1.0,50.0,9.0,0.0,19.0,20.0,18.0,16.0,11.0,9.0,20.0,46.90909090909091,21.0,37.0,40.0,32.72727272727273,70.0,0.0
602,98,0,86.5,3.322,1.0,45.5,38.0,48.5,13.0,9.0,8.0,12.0,7.0,32.0,0.0,16.0,46.0,43.0,46.0,48.0,33.0,4.0
603,98,30,81.5,3.173,1.0,57.0,38.0,43.5,13.0,9.0,8.0,12.0,7.0,32.0,0.0,16.0,46.0,43.0,46.0,48.0,33.0,4.0
604,98,60,76.5,3.2515,1.0,24.0,38.0,38.5,13.0,9.0,8.0,12.0,7.0,32.0,0.0,16.0,46.0,43.0,46.0,48.0,33.0,4.0
605,98,90,72.0,3.5015,1.0,46.0,38.0,34.0,13.0,9.0,8.0,12.0,7.0,32.0,0.0,16.0,46.0,43.0,46.0,48.0,33.0,4.0
606,98,120,61.0,3.4989999999999997,1.0,24.0,38.0,23.0,13.0,9.0,8.0,12.0,7.0,32.0,0.0,16.0,46.0,43.0,46.0,48.0,33.0,4.0
607,98,150,59.5,3.505,0.5,42.0,38.0,21.5,13.0,9.0,8.0,12.0,7.0,32.0,0.0,16.0,46.0,43.0,46.0,48.0,33.0,4.0
608,98,180,38.0,3.484,0.0,56.5,38.0,0.0,13.0,9.0,8.0,12.0,7.0,32.0,0.0,16.0,46.0,43.0,46.0,48.0,33.0,4.0
609,99,0,85.5,1.8925,1.0,49.0,19.0,66.5,16.0,15.0,10.0,18.0,7.0,20.0,2.0,26.0,32.0,43.0,43.0,51.0,48.0,4.0
610,99,30,85.0,2.088,1.0,18.0,19.0,66.0,16.0,15.0,10.0,18.0,7.0,20.0,2.0,26.0,32.0,43.0,43.0,51.0,48.0,4.0
611,99,60,83.0,1.875,1.0,40.0,19.0,64.0,16.0,15.0,10.0,18.0,7.0,20.0,2.0,26.0,32.0,43.0,43.0,51.0,48.0,4.0
612,99,90,77.0,2.3215,1.0,54.0,19.0,58.0,16.0,15.0,10.0,18.0,7.0,20.0,2.0,26.0,32.0,43.0,43.0,51.0,48.0,4.0
613,99,120,57.0,2.3055,1.0,43.0,19.0,38.0,16.0,15.0,10.0,18.0,7.0,20.0,2.0,26.0,32.0,43.0,43.0,51.0,48.0,4.0
614,99,150,24.5,2.409,1.0,50.5,19.0,5.5,16.0,15.0,10.0,18.0,7.0,20.0,2.0,26.0,32.0,43.0,43.0,51.0,48.0,4.0
615,99,180,19.0,2.4565,1.0,35.0,19.0,0.0,16.0,15.0,10.0,18.0,7.0,20.0,2.0,26.0,32.0,43.0,43.0,51.0,48.0,4.0
616,100,0,79.0,2.133,1.0,44.0,51.0,28.0,11.0,15.0,9.0,18.0,10.0,34.0,7.0,35.0,41.0,43.0,39.0,45.0,49.0,10.0
617,100,30,80.5,2.3415,1.0,46.5,51.0,29.5,11.0,15.0,9.0,18.0,10.0,34.0,7.0,35.0,41.0,43.0,39.0,45.0,49.0,10.0
618,100,60,79.0,2.3305,1.0,42.0,51.0,28.0,11.0,15.0,9.0,18.0,10.0,34.0,7.0,35.0,41.0,43.0,39.0,45.0,49.0,10.0
619,100,90,74.5,2.1685,1.0,35.5,51.0,23.5,11.0,15.0,9.0,18.0,10.0,34.0,7.0,35.0,41.0,43.0,39.0,45.0,49.0,10.0
620,100,120,63.5,2.1345,1.0,57.5,51.0,12.5,11.0,15.0,9.0,18.0,10.0,34.0,7.0,35.0,41.0,43.0,39.0,45.0,49.0,10.0
621,100,150,59.0,2.2215,0.5,33.0,51.0,8.0,11.0,15.0,9.0,18.0,10.0,34.0,7.0,35.0,41.0,43.0,39.0,45.0,49.0,10.0
622,100,180,51.0,3.0055,0.5,37.5,51.0,0.0,11.0,15.0,9.0,18.0,10.0,34.0,7.0,35.0,41.0,43.0,39.0,45.0,49.0,10.0
623,101,0,84.0,2.5585,1.0,37.5,12.0,72.0,8.0,13.0,5.0,12.0,5.0,8.0,12.0,45.0,37.0,33.0,42.0,50.0,59.0,3.0
624,101,30,88.0,2.8600000000000003,1.0,32.5,12.0,76.0,8.0,13.0,5.0,12.0,5.0,8.0,12.0,45.0,37.0,33.0,42.0,50.0,59.0,3.0
625,101,60,84.0,2.683,1.0,48.0,12.0,72.0,8.0,13.0,5.0,12.0,5.0,8.0,12.0,45.0,37.0,33.0,42.0,50.0,59.0,3.0
626,101,90,70.5,2.863,1.0,39.5,12.0,58.5,8.0,13.0,5.0,12.0,5.0,8.0,12.0,45.0,37.0,33.0,42.0,50.0,59.0,3.0
627,101,120,20.5,2.855,1.0,60.0,12.0,8.5,8.0,13.0,5.0,12.0,5.0,8.0,12.0,45.0,37.0,33.0,42.0,50.0,59.0,3.0
628,101,150,10.5,3.15,1.0,31.5,12.0,-1.5,8.0,13.0,5.0,12.0,5.0,8.0,12.0,45.0,37.0,33.0,42.0,50.0,59.0,3.0
629,101,180,12.0,2.9530000000000003,0.5,37.5,12.0,0.0,8.0,13.0,5.0,12.0,5.0,8.0,12.0,45.0,37.0,33.0,42.0,50.0,59.0,3.0
630,102,0,95.5,2.7085,1.0,42.0,18.5,77.0,23.0,22.0,18.0,18.0,18.0,19.0,19.0,49.0,25.0,32.0,44.0,47.0,33.0,3.0
631,102,30,92.0,2.586,1.0,42.5,18.5,73.5,23.0,22.0,18.0,18.0,18.0,19.0,19.0,49.0,25.0,32.0,44.0,47.0,33.0,3.0
632,102,60,84.5,2.5215,1.0,21.5,18.5,66.0,23.0,22.0,18.0,18.0,18.0,19.0,19.0,49.0,25.0,32.0,44.0,47.0,33.0,3.0
633,102,90,68.5,2.6845,1.0,48.5,18.5,50.0,23.0,22.0,18.0,18.0,18.0,19.0,19.0,49.0,25.0,32.0,44.0,47.0,33.0,3.0
634,102,120,43.0,3.2005,1.0,34.5,18.5,24.5,23.0,22.0,18.0,18.0,18.0,19.0,19.0,49.0,25.0,32.0,44.0,47.0,33.0,3.0
635,102,150,20.5,3.061,0.5,51.5,18.5,2.0,23.0,22.0,18.0,18.0,18.0,19.0,19.0,49.0,25.0,32.0,44.0,47.0,33.0,3.0
636,102,180,18.5,2.7715,0.5,44.5,18.5,0.0,23.0,22.0,18.0,18.0,18.0,19.0,19.0,49.0,25.0,32.0,44.0,47.0,33.0,3.0
637,103,0,100.0,2.9595000000000002,1.0,29.0,0.0,100.0,13.0,15.0,10.0,16.0,9.0,12.0,8.0,43.0,35.0,36.0,46.0,42.0,71.0,0.0
638,103,30,98.5,3.4515000000000002,1.0,68.0,0.0,98.5,13.0,15.0,10.0,16.0,9.0,12.0,8.0,43.0,35.0,36.0,46.0,42.0,71.0,0.0
639,103,60,81.5,3.215,1.0,45.0,0.0,81.5,13.0,15.0,10.0,16.0,9.0,12.0,8.0,43.0,35.0,36.0,46.0,42.0,71.0,0.0
640,103,90,81.0,3.1775,1.0,42.0,0.0,81.0,13.0,15.0,10.0,16.0,9.0,12.0,8.0,43.0,35.0,36.0,46.0,42.0,71.0,0.0
641,103,120,52.0,2.9299999999999997,1.0,45.5,0.0,52.0,13.0,15.0,10.0,16.0,9.0,12.0,8.0,43.0,35.0,36.0,46.0,42.0,71.0,0.0
642,103,150,14.0,3.5949999999999998,1.0,40.0,0.0,14.0,13.0,15.0,10.0,16.0,9.0,12.0,8.0,43.0,35.0,36.0,46.0,42.0,71.0,0.0
643,103,180,0.0,3.5545,1.0,33.5,0.0,0.0,13.0,15.0,10.0,16.0,9.0,12.0,8.0,43.0,35.0,36.0,46.0,42.0,71.0,0.0
644,104,0,100.0,2.683,1.0,33.0,0.0,100.0,4.0,11.0,3.0,19.0,2.0,40.0,0.0,12.0,50.0,58.0,54.0,56.0,20.0,8.0
645,104,30,100.0,2.717,1.0,56.5,0.0,100.0,4.0,11.0,3.0,19.0,2.0,40.0,0.0,12.0,50.0,58.0,54.0,56.0,20.0,8.0
646,104,60,100.0,2.96,1.0,54.0,0.0,100.0,4.0,11.0,3.0,19.0,2.0,40.0,0.0,12.0,50.0,58.0,54.0,56.0,20.0,8.0
647,104,90,100.0,2.988,1.0,24.0,0.0,100.0,4.0,11.0,3.0,19.0,2.0,40.0,0.0,12.0,50.0,58.0,54.0,56.0,20.0,8.0
648,104,120,0.0,2.6975,0.5,37.5,0.0,0.0,4.0,11.0,3.0,19.0,2.0,40.0,0.0,12.0,50.0,58.0,54.0,56.0,20.0,8.0
649,104,150,0.0,2.7935,0.5,48.5,0.0,0.0,4.0,11.0,3.0,19.0,2.0,40.0,0.0,12.0,50.0,58.0,54.0,56.0,20.0,8.0
650,104,180,0.0,2.9305,0.5,30.0,0.0,0.0,4.0,11.0,3.0,19.0,2.0,40.0,0.0,12.0,50.0,58.0,54.0,56.0,20.0,8.0
651,105,0,100.0,2.13,1.0,49.0,40.5,59.5,9.0,16.0,8.0,10.0,11.0,20.0,4.0,35.0,36.0,43.0,44.0,38.0,45.0,8.0
652,105,30,99.0,2.1525,1.0,24.0,40.5,58.5,9.0,16.0,8.0,10.0,11.0,20.0,4.0,35.0,36.0,43.0,44.0,38.0,45.0,8.0
653,105,60,94.0,2.094,1.0,53.0,40.5,53.5,9.0,16.0,8.0,10.0,11.0,20.0,4.0,35.0,36.0,43.0,44.0,38.0,45.0,8.0
654,105,90,82.5,2.2125000000000004,1.0,49.0,40.5,42.0,9.0,16.0,8.0,10.0,11.0,20.0,4.0,35.0,36.0,43.0,44.0,38.0,45.0,8.0
655,105,120,42.5,2.58,1.0,36.0,40.5,2.0,9.0,16.0,8.0,10.0,11.0,20.0,4.0,35.0,36.0,43.0,44.0,38.0,45.0,8.0
656,105,150,41.5,2.3525,1.0,36.5,40.5,1.0,9.0,16.0,8.0,10.0,11.0,20.0,4.0,35.0,36.0,43.0,44.0,38.0,45.0,8.0
657,105,180,40.5,2.819,0.0,44.0,40.5,0.0,9.0,16.0,8.0,10.0,11.0,20.0,4.0,35.0,36.0,43.0,44.0,38.0,45.0,8.0
658,106,0,94.5,3.33,1.0,34.0,17.5,77.0,26.0,23.0,12.0,17.0,11.0,7.0,8.0,42.0,25.0,37.0,44.0,45.0,65.0,0.0
659,106,30,94.5,3.344,1.0,35.5,17.5,77.0,26.0,23.0,12.0,17.0,11.0,7.0,8.0,42.0,25.0,37.0,44.0,45.0,65.0,0.0
660,106,60,87.0,3.3715,1.0,35.5,17.5,69.5,26.0,23.0,12.0,17.0,11.0,7.0,8.0,42.0,25.0,37.0,44.0,45.0,65.0,0.0
661,106,90,77.0,3.4275,1.0,37.0,17.5,59.5,26.0,23.0,12.0,17.0,11.0,7.0,8.0,42.0,25.0,37.0,44.0,45.0,65.0,0.0
662,106,120,24.0,3.474,1.0,42.0,17.5,6.5,26.0,23.0,12.0,17.0,11.0,7.0,8.0,42.0,25.0,37.0,44.0,45.0,65.0,0.0
663,106,150,22.0,3.6105,1.0,47.5,17.5,4.5,26.0,23.0,12.0,17.0,11.0,7.0,8.0,42.0,25.0,37.0,44.0,45.0,65.0,0.0
664,106,180,17.5,3.5275,0.0,64.5,17.5,0.0,26.0,23.0,12.0,17.0,11.0,7.0,8.0,42.0,25.0,37.0,44.0,45.0,65.0,0.0
665,107,0,82.5,2.6855,1.0,43.5,46.5,36.0,7.0,15.0,13.0,8.0,7.777777777777778,14.0,2.0,32.0,38.0,38.0,41.0,48.0,41.0,10.0
666,107,30,77.0,2.8585000000000003,1.0,35.5,46.5,30.5,7.0,15.0,13.0,8.0,7.777777777777778,14.0,2.0,32.0,38.0,38.0,41.0,48.0,41.0,10.0
667,107,60,74.5,2.4364999999999997,1.0,38.5,46.5,28.0,7.0,15.0,13.0,8.0,7.777777777777778,14.0,2.0,32.0,38.0,38.0,41.0,48.0,41.0,10.0
668,107,90,78.0,2.7640000000000002,1.0,33.5,46.5,31.5,7.0,15.0,13.0,8.0,7.777777777777778,14.0,2.0,32.0,38.0,38.0,41.0,48.0,41.0,10.0
669,107,120,60.0,2.9765,1.0,60.5,46.5,13.5,7.0,15.0,13.0,8.0,7.777777777777778,14.0,2.0,32.0,38.0,38.0,41.0,48.0,41.0,10.0
670,107,150,37.0,3.402,1.0,47.5,46.5,-9.5,7.0,15.0,13.0,8.0,7.777777777777778,14.0,2.0,32.0,38.0,38.0,41.0,48.0,41.0,10.0
671,107,180,46.5,3.8179999999999996,1.0,38.0,46.5,0.0,7.0,15.0,13.0,8.0,7.777777777777778,14.0,2.0,32.0,38.0,38.0,41.0,48.0,41.0,10.0
672,108,0,100.0,2.8245,1.0,51.5,6.0,94.0,7.0,7.0,3.0,10.0,2.0,22.0,10.0,34.0,35.0,42.0,45.0,33.0,46.0,2.0
673,108,30,100.0,2.6574999999999998,1.0,39.5,6.0,94.0,7.0,7.0,3.0,10.0,2.0,22.0,10.0,34.0,35.0,42.0,45.0,33.0,46.0,2.0
674,108,60,100.0,2.6995,1.0,44.5,6.0,94.0,7.0,7.0,3.0,10.0,2.0,22.0,10.0,34.0,35.0,42.0,45.0,33.0,46.0,2.0
675,108,90,94.0,2.8875,1.0,46.0,6.0,88.0,7.0,7.0,3.0,10.0,2.0,22.0,10.0,34.0,35.0,42.0,45.0,33.0,46.0,2.0
676,108,120,35.0,3.0395,1.0,39.5,6.0,29.0,7.0,7.0,3.0,10.0,2.0,22.0,10.0,34.0,35.0,42.0,45.0,33.0,46.0,2.0
677,108,150,1.5,2.981,1.0,41.0,6.0,-4.5,7.0,7.0,3.0,10.0,2.0,22.0,10.0,34.0,35.0,42.0,45.0,33.0,46.0,2.0
678,108,180,6.0,3.3579999999999997,0.5,27.5,6.0,0.0,7.0,7.0,3.0,10.0,2.0,22.0,10.0,34.0,35.0,42.0,45.0,33.0,46.0,2.0
679,109,0,100.0,3.1985,1.0,40.0,0.5,99.5,10.0,13.0,9.0,19.0,8.0,20.0,1.0,35.0,35.0,39.0,44.0,50.0,41.0,4.0
680,109,30,100.0,3.138,1.0,44.5,0.5,99.5,10.0,13.0,9.0,19.0,8.0,20.0,1.0,35.0,35.0,39.0,44.0,50.0,41.0,4.0
681,109,60,100.0,3.3369999999999997,1.0,31.5,0.5,99.5,10.0,13.0,9.0,19.0,8.0,20.0,1.0,35.0,35.0,39.0,44.0,50.0,41.0,4.0
682,109,90,97.5,3.3914999999999997,1.0,34.5,0.5,97.0,10.0,13.0,9.0,19.0,8.0,20.0,1.0,35.0,35.0,39.0,44.0,50.0,41.0,4.0
683,109,120,30.0,4.2315000000000005,1.0,36.5,0.5,29.5,10.0,13.0,9.0,19.0,8.0,20.0,1.0,35.0,35.0,39.0,44.0,50.0,41.0,4.0
684,109,150,8.0,3.5105000000000004,1.0,59.0,0.5,7.5,10.0,13.0,9.0,19.0,8.0,20.0,1.0,35.0,35.0,39.0,44.0,50.0,41.0,4.0
685,109,180,0.5,3.612,1.0,46.5,0.5,0.0,10.0,13.0,9.0,19.0,8.0,20.0,1.0,35.0,35.0,39.0,44.0,50.0,41.0,4.0
686,110,0,100.0,2.9495,1.0,46.5,0.0,100.0,21.0,18.0,20.0,22.0,8.0,6.0,2.0,45.0,13.0,43.0,32.0,33.0,67.0,0.0
687,110,30,100.0,3.232,1.0,29.5,0.0,100.0,21.0,18.0,20.0,22.0,8.0,6.0,2.0,45.0,13.0,43.0,32.0,33.0,67.0,0.0
688,110,60,100.0,2.8979999999999997,1.0,39.0,0.0,100.0,21.0,18.0,20.0,22.0,8.0,6.0,2.0,45.0,13.0,43.0,32.0,33.0,67.0,0.0
689,110,90,100.0,2.729,1.0,46.5,0.0,100.0,21.0,18.0,20.0,22.0,8.0,6.0,2.0,45.0,13.0,43.0,32.0,33.0,67.0,0.0
690,110,120,0.0,3.1029999999999998,1.0,46.0,0.0,0.0,21.0,18.0,20.0,22.0,8.0,6.0,2.0,45.0,13.0,43.0,32.0,33.0,67.0,0.0
691,110,150,0.0,2.5845000000000002,1.0,46.0,0.0,0.0,21.0,18.0,20.0,22.0,8.0,6.0,2.0,45.0,13.0,43.0,32.0,33.0,67.0,0.0
692,110,180,0.0,2.6159999999999997,0.0,35.0,0.0,0.0,21.0,18.0,20.0,22.0,8.0,6.0,2.0,45.0,13.0,43.0,32.0,33.0,67.0,0.0
693,111,0,88.5,3.1464999999999996,1.0,34.0,14.5,74.0,14.444444444444445,13.0,9.0,13.0,4.0,22.0,8.0,31.0,30.0,36.0,37.0,44.0,57.0,1.0
694,111,30,85.5,3.899,1.0,35.0,14.5,71.0,14.444444444444445,13.0,9.0,13.0,4.0,22.0,8.0,31.0,30.0,36.0,37.0,44.0,57.0,1.0
695,111,60,80.5,3.3675,1.0,63.0,14.5,66.0,14.444444444444445,13.0,9.0,13.0,4.0,22.0,8.0,31.0,30.0,36.0,37.0,44.0,57.0,1.0
696,111,90,73.0,3.6245,1.0,37.0,14.5,58.5,14.444444444444445,13.0,9.0,13.0,4.0,22.0,8.0,31.0,30.0,36.0,37.0,44.0,57.0,1.0
697,111,120,56.0,3.3735,1.0,29.0,14.5,41.5,14.444444444444445,13.0,9.0,13.0,4.0,22.0,8.0,31.0,30.0,36.0,37.0,44.0,57.0,1.0
698,111,150,21.0,3.436,1.0,42.5,14.5,6.5,14.444444444444445,13.0,9.0,13.0,4.0,22.0,8.0,31.0,30.0,36.0,37.0,44.0,57.0,1.0
699,111,180,14.5,3.7119999999999997,0.5,49.5,14.5,0.0,14.444444444444445,13.0,9.0,13.0,4.0,22.0,8.0,31.0,30.0,36.0,37.0,44.0,57.0,1.0
700,112,0,100.0,2.8555,1.0,32.5,0.0,100.0,9.0,15.0,4.0,18.0,5.0,34.0,0.0,21.0,50.18181818181818,46.0,51.0,60.0,30.0,5.0
701,112,30,100.0,2.7535,1.0,46.5,0.0,100.0,9.0,15.0,4.0,18.0,5.0,34.0,0.0,21.0,50.18181818181818,46.0,51.0,60.0,30.0,5.0
702,112,60,100.0,2.7725,1.0,61.0,0.0,100.0,9.0,15.0,4.0,18.0,5.0,34.0,0.0,21.0,50.18181818181818,46.0,51.0,60.0,30.0,5.0
703,112,90,100.0,2.8145,1.0,51.5,0.0,100.0,9.0,15.0,4.0,18.0,5.0,34.0,0.0,21.0,50.18181818181818,46.0,51.0,60.0,30.0,5.0
704,112,120,100.0,2.9610000000000003,1.0,47.0,0.0,100.0,9.0,15.0,4.0,18.0,5.0,34.0,0.0,21.0,50.18181818181818,46.0,51.0,60.0,30.0,5.0
705,112,150,0.0,3.2030000000000003,1.0,30.5,0.0,0.0,9.0,15.0,4.0,18.0,5.0,34.0,0.0,21.0,50.18181818181818,46.0,51.0,60.0,30.0,5.0
706,112,180,0.0,2.9855,0.0,24.0,0.0,0.0,9.0,15.0,4.0,18.0,5.0,34.0,0.0,21.0,50.18181818181818,46.0,51.0,60.0,30.0,5.0
707,113,0,100.0,2.556,1.0,55.5,4.0,96.0,26.0,30.0,25.0,21.0,28.0,13.0,9.0,55.0,18.0,24.0,36.0,55.0,56.0,3.0
708,113,30,100.0,2.7359999999999998,1.0,33.5,4.0,96.0,26.0,30.0,25.0,21.0,28.0,13.0,9.0,55.0,18.0,24.0,36.0,55.0,56.0,3.0
709,113,60,97.0,2.6414999999999997,1.0,48.5,4.0,93.0,26.0,30.0,25.0,21.0,28.0,13.0,9.0,55.0,18.0,24.0,36.0,55.0,56.0,3.0
710,113,90,89.5,2.867,1.0,37.0,4.0,85.5,26.0,30.0,25.0,21.0,28.0,13.0,9.0,55.0,18.0,24.0,36.0,55.0,56.0,3.0
711,113,120,33.0,2.983,1.0,29.5,4.0,29.0,26.0,30.0,25.0,21.0,28.0,13.0,9.0,55.0,18.0,24.0,36.0,55.0,56.0,3.0
712,113,150,6.5,3.5229999999999997,1.0,43.0,4.0,2.5,26.0,30.0,25.0,21.0,28.0,13.0,9.0,55.0,18.0,24.0,36.0,55.0,56.0,3.0
713,113,180,4.0,3.1295,0.5,49.5,4.0,0.0,26.0,30.0,25.0,21.0,28.0,13.0,9.0,55.0,18.0,24.0,36.0,55.0,56.0,3.0
714,114,0,100.0,2.4955,1.0,34.5,0.0,100.0,27.0,20.0,15.0,10.0,9.0,3.0,23.0,56.0,15.0,44.0,37.0,31.0,76.0,0.0
715,114,30,100.0,2.7515,1.0,61.0,0.0,100.0,27.0,20.0,15.0,10.0,9.0,3.0,23.0,56.0,15.0,44.0,37.0,31.0,76.0,0.0
716,114,60,100.0,2.682,1.0,46.0,0.0,100.0,27.0,20.0,15.0,10.0,9.0,3.0,23.0,56.0,15.0,44.0,37.0,31.0,76.0,0.0
717,114,90,52.0,3.3135000000000003,1.0,46.5,0.0,52.0,27.0,20.0,15.0,10.0,9.0,3.0,23.0,56.0,15.0,44.0,37.0,31.0,76.0,0.0
718,114,120,0.0,3.29,0.5,41.0,0.0,0.0,27.0,20.0,15.0,10.0,9.0,3.0,23.0,56.0,15.0,44.0,37.0,31.0,76.0,0.0
719,114,150,0.0,3.122,0.0,35.0,0.0,0.0,27.0,20.0,15.0,10.0,9.0,3.0,23.0,56.0,15.0,44.0,37.0,31.0,76.0,0.0
720,114,180,0.0,2.9615,1.0,38.0,0.0,0.0,27.0,20.0,15.0,10.0,9.0,3.0,23.0,56.0,15.0,44.0,37.0,31.0,76.0,0.0
721,115,0,92.0,2.4210000000000003,1.0,23.5,20.0,72.0,14.0,5.0,9.0,18.0,9.0,16.0,2.0,24.0,28.0,48.0,39.0,41.0,33.0,5.0
722,115,30,91.0,2.204,1.0,60.0,20.0,71.0,14.0,5.0,9.0,18.0,9.0,16.0,2.0,24.0,28.0,48.0,39.0,41.0,33.0,5.0
723,115,60,86.0,2.368,1.0,50.0,20.0,66.0,14.0,5.0,9.0,18.0,9.0,16.0,2.0,24.0,28.0,48.0,39.0,41.0,33.0,5.0
724,115,90,72.5,2.66,1.0,34.5,20.0,52.5,14.0,5.0,9.0,18.0,9.0,16.0,2.0,24.0,28.0,48.0,39.0,41.0,33.0,5.0
725,115,120,35.0,2.7165,1.0,39.0,20.0,15.0,14.0,5.0,9.0,18.0,9.0,16.0,2.0,24.0,28.0,48.0,39.0,41.0,33.0,5.0
726,115,150,22.0,2.924,1.0,36.0,20.0,2.0,14.0,5.0,9.0,18.0,9.0,16.0,2.0,24.0,28.0,48.0,39.0,41.0,33.0,5.0
727,115,180,20.0,2.787,1.0,40.5,20.0,0.0,14.0,5.0,9.0,18.0,9.0,16.0,2.0,24.0,28.0,48.0,39.0,41.0,33.0,5.0
728,116,0,96.0,2.6475,1.0,49.0,14.5,81.5,21.0,26.0,27.0,23.0,25.0,29.0,12.0,45.0,31.0,55.0,44.0,43.0,61.0,1.0
729,116,30,92.0,2.594,1.0,39.0,14.5,77.5,21.0,26.0,27.0,23.0,25.0,29.0,12.0,45.0,31.0,55.0,44.0,43.0,61.0,1.0
730,116,60,93.5,2.6304999999999996,1.0,56.5,14.5,79.0,21.0,26.0,27.0,23.0,25.0,29.0,12.0,45.0,31.0,55.0,44.0,43.0,61.0,1.0
731,116,90,84.0,2.7835,1.0,17.5,14.5,69.5,21.0,26.0,27.0,23.0,25.0,29.0,12.0,45.0,31.0,55.0,44.0,43.0,61.0,1.0
732,116,120,54.0,3.8209999999999997,1.0,40.0,14.5,39.5,21.0,26.0,27.0,23.0,25.0,29.0,12.0,45.0,31.0,55.0,44.0,43.0,61.0,1.0
733,116,150,38.5,3.2824999999999998,1.0,47.5,14.5,24.0,21.0,26.0,27.0,23.0,25.0,29.0,12.0,45.0,31.0,55.0,44.0,43.0,61.0,1.0
734,116,180,14.5,4.0645,1.0,24.5,14.5,0.0,21.0,26.0,27.0,23.0,25.0,29.0,12.0,45.0,31.0,55.0,44.0,43.0,61.0,1.0
735,117,0,100.0,1.9300000000000002,1.0,41.0,0.0,100.0,22.0,16.0,17.0,8.0,13.0,10.0,18.0,40.0,27.0,42.0,45.0,50.0,45.0,2.0
736,117,30,94.5,2.097,1.0,46.5,0.0,94.5,22.0,16.0,17.0,8.0,13.0,10.0,18.0,40.0,27.0,42.0,45.0,50.0,45.0,2.0
737,117,60,84.0,2.0105,1.0,36.5,0.0,84.0,22.0,16.0,17.0,8.0,13.0,10.0,18.0,40.0,27.0,42.0,45.0,50.0,45.0,2.0
738,117,90,71.0,2.3040000000000003,1.0,41.5,0.0,71.0,22.0,16.0,17.0,8.0,13.0,10.0,18.0,40.0,27.0,42.0,45.0,50.0,45.0,2.0
739,117,120,3.0,2.464,1.0,46.5,0.0,3.0,22.0,16.0,17.0,8.0,13.0,10.0,18.0,40.0,27.0,42.0,45.0,50.0,45.0,2.0
740,117,150,0.0,2.1115000000000004,0.5,27.5,0.0,0.0,22.0,16.0,17.0,8.0,13.0,10.0,18.0,40.0,27.0,42.0,45.0,50.0,45.0,2.0
741,117,180,0.0,2.4045,0.5,59.0,0.0,0.0,22.0,16.0,17.0,8.0,13.0,10.0,18.0,40.0,27.0,42.0,45.0,50.0,45.0,2.0
742,118,0,100.0,2.4850000000000003,1.0,44.0,16.5,83.5,17.0,17.0,9.0,18.0,14.0,23.33333333333333,10.0,39.0,34.0,47.0,45.0,43.0,57.0,2.0
743,118,30,100.0,2.1985,1.0,50.0,16.5,83.5,17.0,17.0,9.0,18.0,14.0,23.33333333333333,10.0,39.0,34.0,47.0,45.0,43.0,57.0,2.0
744,118,60,86.0,2.624,1.0,31.5,16.5,69.5,17.0,17.0,9.0,18.0,14.0,23.33333333333333,10.0,39.0,34.0,47.0,45.0,43.0,57.0,2.0
745,118,90,82.0,2.4105,1.0,38.0,16.5,65.5,17.0,17.0,9.0,18.0,14.0,23.33333333333333,10.0,39.0,34.0,47.0,45.0,43.0,57.0,2.0
746,118,120,34.5,2.3715,1.0,35.5,16.5,18.0,17.0,17.0,9.0,18.0,14.0,23.33333333333333,10.0,39.0,34.0,47.0,45.0,43.0,57.0,2.0
747,118,150,20.0,2.6994999999999996,1.0,55.5,16.5,3.5,17.0,17.0,9.0,18.0,14.0,23.33333333333333,10.0,39.0,34.0,47.0,45.0,43.0,57.0,2.0
748,118,180,16.5,2.4124999999999996,0.5,43.0,16.5,0.0,17.0,17.0,9.0,18.0,14.0,23.33333333333333,10.0,39.0,34.0,47.0,45.0,43.0,57.0,2.0
749,119,0,100.0,4.405,1.0,39.5,0.0,100.0,12.0,17.0,5.0,14.0,10.0,35.0,0.0,19.0,49.0,42.0,47.0,57.0,30.0,3.0
750,119,30,100.0,4.288,1.0,42.0,0.0,100.0,12.0,17.0,5.0,14.0,10.0,35.0,0.0,19.0,49.0,42.0,47.0,57.0,30.0,3.0
751,119,60,100.0,4.4645,1.0,30.5,0.0,100.0,12.0,17.0,5.0,14.0,10.0,35.0,0.0,19.0,49.0,42.0,47.0,57.0,30.0,3.0
752,119,90,99.5,4.4990000000000006,1.0,34.5,0.0,99.5,12.0,17.0,5.0,14.0,10.0,35.0,0.0,19.0,49.0,42.0,47.0,57.0,30.0,3.0
753,119,120,0.0,4.92,1.0,29.0,0.0,0.0,12.0,17.0,5.0,14.0,10.0,35.0,0.0,19.0,49.0,42.0,47.0,57.0,30.0,3.0
754,119,150,0.0,4.4399999999999995,1.0,51.0,0.0,0.0,12.0,17.0,5.0,14.0,10.0,35.0,0.0,19.0,49.0,42.0,47.0,57.0,30.0,3.0
755,119,180,0.0,4.791,0.5,69.0,0.0,0.0,12.0,17.0,5.0,14.0,10.0,35.0,0.0,19.0,49.0,42.0,47.0,57.0,30.0,3.0
756,121,0,95.0,2.233,1.0,27.5,15.0,80.0,16.0,18.0,3.0,15.0,16.0,19.0,20.0,59.0,31.0,55.0,47.0,36.0,64.0,4.0
757,121,30,96.5,1.91,1.0,39.5,15.0,81.5,16.0,18.0,3.0,15.0,16.0,19.0,20.0,59.0,31.0,55.0,47.0,36.0,64.0,4.0
758,121,60,91.5,1.996,1.0,41.0,15.0,76.5,16.0,18.0,3.0,15.0,16.0,19.0,20.0,59.0,31.0,55.0,47.0,36.0,64.0,4.0
759,121,90,67.5,2.093,1.0,33.5,15.0,52.5,16.0,18.0,3.0,15.0,16.0,19.0,20.0,59.0,31.0,55.0,47.0,36.0,64.0,4.0
760,121,120,56.5,2.0315,1.0,61.5,15.0,41.5,16.0,18.0,3.0,15.0,16.0,19.0,20.0,59.0,31.0,55.0,47.0,36.0,64.0,4.0
761,121,150,40.0,2.7175000000000002,1.0,40.0,15.0,25.0,16.0,18.0,3.0,15.0,16.0,19.0,20.0,59.0,31.0,55.0,47.0,36.0,64.0,4.0
762,121,180,15.0,2.452,0.5,42.5,15.0,0.0,16.0,18.0,3.0,15.0,16.0,19.0,20.0,59.0,31.0,55.0,47.0,36.0,64.0,4.0
763,122,0,86.0,3.667,1.0,33.5,26.0,60.0,15.0,13.0,6.0,15.0,15.0,22.0,2.0,31.0,36.0,35.0,41.0,47.0,49.0,2.0
764,122,30,88.0,3.4154999999999998,1.0,40.5,26.0,62.0,15.0,13.0,6.0,15.0,15.0,22.0,2.0,31.0,36.0,35.0,41.0,47.0,49.0,2.0
765,122,60,85.5,4.3934999999999995,1.0,48.0,26.0,59.5,15.0,13.0,6.0,15.0,15.0,22.0,2.0,31.0,36.0,35.0,41.0,47.0,49.0,2.0
766,122,90,79.0,3.566,1.0,42.5,26.0,53.0,15.0,13.0,6.0,15.0,15.0,22.0,2.0,31.0,36.0,35.0,41.0,47.0,49.0,2.0
767,122,120,44.0,3.062,1.0,47.5,26.0,18.0,15.0,13.0,6.0,15.0,15.0,22.0,2.0,31.0,36.0,35.0,41.0,47.0,49.0,2.0
768,122,150,26.0,3.7385,1.0,46.0,26.0,0.0,15.0,13.0,6.0,15.0,15.0,22.0,2.0,31.0,36.0,35.0,41.0,47.0,49.0,2.0
769,122,180,26.0,2.95,0.0,33.0,26.0,0.0,15.0,13.0,6.0,15.0,15.0,22.0,2.0,31.0,36.0,35.0,41.0,47.0,49.0,2.0
770,123,0,100.0,1.7850000000000001,1.0,39.5,12.0,88.0,20.0,21.0,10.0,21.0,17.0,10.0,10.0,45.0,28.0,32.0,40.0,36.0,49.0,2.0
771,123,30,100.0,1.8940000000000001,1.0,57.0,12.0,88.0,20.0,21.0,10.0,21.0,17.0,10.0,10.0,45.0,28.0,32.0,40.0,36.0,49.0,2.0
772,123,60,98.5,1.853,1.0,50.5,12.0,86.5,20.0,21.0,10.0,21.0,17.0,10.0,10.0,45.0,28.0,32.0,40.0,36.0,49.0,2.0
773,123,90,78.0,2.0170000000000003,1.0,44.5,12.0,66.0,20.0,21.0,10.0,21.0,17.0,10.0,10.0,45.0,28.0,32.0,40.0,36.0,49.0,2.0
774,123,120,40.0,2.3685,1.0,40.5,12.0,28.0,20.0,21.0,10.0,21.0,17.0,10.0,10.0,45.0,28.0,32.0,40.0,36.0,49.0,2.0
775,123,150,26.0,2.5065,1.0,29.0,12.0,14.0,20.0,21.0,10.0,21.0,17.0,10.0,10.0,45.0,28.0,32.0,40.0,36.0,49.0,2.0
776,123,180,12.0,2.223,1.0,45.5,12.0,0.0,20.0,21.0,10.0,21.0,17.0,10.0,10.0,45.0,28.0,32.0,40.0,36.0,49.0,2.0
777,125,0,100.0,3.123,1.0,26.5,16.0,84.0,17.0,16.0,15.0,16.0,12.0,15.0,0.0,27.0,34.0,39.0,37.0,47.0,45.0,3.0
778,125,30,100.0,3.165,1.0,44.0,16.0,84.0,17.0,16.0,15.0,16.0,12.0,15.0,0.0,27.0,34.0,39.0,37.0,47.0,45.0,3.0
779,125,60,100.0,3.157,1.0,36.5,16.0,84.0,17.0,16.0,15.0,16.0,12.0,15.0,0.0,27.0,34.0,39.0,37.0,47.0,45.0,3.0
780,125,90,100.0,3.763,1.0,31.5,16.0,84.0,17.0,16.0,15.0,16.0,12.0,15.0,0.0,27.0,34.0,39.0,37.0,47.0,45.0,3.0
781,125,120,35.0,3.9795,1.0,54.5,16.0,19.0,17.0,16.0,15.0,16.0,12.0,15.0,0.0,27.0,34.0,39.0,37.0,47.0,45.0,3.0
782,125,150,26.0,4.385999999999999,1.0,58.5,16.0,10.0,17.0,16.0,15.0,16.0,12.0,15.0,0.0,27.0,34.0,39.0,37.0,47.0,45.0,3.0
783,125,180,16.0,4.915,0.0,41.0,16.0,0.0,17.0,16.0,15.0,16.0,12.0,15.0,0.0,27.0,34.0,39.0,37.0,47.0,45.0,3.0
784,127,0,94.5,3.4355,1.0,39.0,12.5,82.0,8.0,12.0,4.0,19.0,7.0,33.0,0.0,14.0,47.0,47.0,40.0,51.0,32.0,5.0
785,127,30,93.0,3.4204999999999997,1.0,24.5,12.5,80.5,8.0,12.0,4.0,19.0,7.0,33.0,0.0,14.0,47.0,47.0,40.0,51.0,32.0,5.0
786,127,60,86.0,3.508,1.0,50.5,12.5,73.5,8.0,12.0,4.0,19.0,7.0,33.0,0.0,14.0,47.0,47.0,40.0,51.0,32.0,5.0
787,127,90,81.5,3.521,1.0,50.5,12.5,69.0,8.0,12.0,4.0,19.0,7.0,33.0,0.0,14.0,47.0,47.0,40.0,51.0,32.0,5.0
788,127,120,39.0,3.749,1.0,48.5,12.5,26.5,8.0,12.0,4.0,19.0,7.0,33.0,0.0,14.0,47.0,47.0,40.0,51.0,32.0,5.0
789,127,150,28.0,4.1635,1.0,39.5,12.5,15.5,8.0,12.0,4.0,19.0,7.0,33.0,0.0,14.0,47.0,47.0,40.0,51.0,32.0,5.0
790,127,180,12.5,3.6205,0.0,24.5,12.5,0.0,8.0,12.0,4.0,19.0,7.0,33.0,0.0,14.0,47.0,47.0,40.0,51.0,32.0,5.0
791,128,0,100.0,3.7030000000000003,1.0,57.5,13.5,86.5,14.0,22.0,5.0,12.0,6.0,17.0,27.0,44.0,30.0,42.0,45.0,47.0,40.0,7.0
792,128,30,100.0,3.4925,1.0,39.5,13.5,86.5,14.0,22.0,5.0,12.0,6.0,17.0,27.0,44.0,30.0,42.0,45.0,47.0,40.0,7.0
793,128,60,96.5,3.3365,1.0,31.5,13.5,83.0,14.0,22.0,5.0,12.0,6.0,17.0,27.0,44.0,30.0,42.0,45.0,47.0,40.0,7.0
794,128,90,84.0,3.8315,1.0,37.5,13.5,70.5,14.0,22.0,5.0,12.0,6.0,17.0,27.0,44.0,30.0,42.0,45.0,47.0,40.0,7.0
795,128,120,42.0,4.547499999999999,1.0,58.0,13.5,28.5,14.0,22.0,5.0,12.0,6.0,17.0,27.0,44.0,30.0,42.0,45.0,47.0,40.0,7.0
796,128,150,9.5,4.458,1.0,28.5,13.5,-4.0,14.0,22.0,5.0,12.0,6.0,17.0,27.0,44.0,30.0,42.0,45.0,47.0,40.0,7.0
797,128,180,13.5,3.944,0.0,39.0,13.5,0.0,14.0,22.0,5.0,12.0,6.0,17.0,27.0,44.0,30.0,42.0,45.0,47.0,40.0,7.0
798,129,0,76.5,3.237,1.0,51.5,27.0,49.5,10.0,11.0,8.0,6.0,3.0,26.0,2.0,22.0,40.0,41.0,51.0,48.0,39.0,3.0
799,129,30,71.5,3.3040000000000003,1.0,41.5,27.0,44.5,10.0,11.0,8.0,6.0,3.0,26.0,2.0,22.0,40.0,41.0,51.0,48.0,39.0,3.0
800,129,60,70.5,3.5069999999999997,1.0,46.0,27.0,43.5,10.0,11.0,8.0,6.0,3.0,26.0,2.0,22.0,40.0,41.0,51.0,48.0,39.0,3.0
801,129,90,66.5,3.378,1.0,47.0,27.0,39.5,10.0,11.0,8.0,6.0,3.0,26.0,2.0,22.0,40.0,41.0,51.0,48.0,39.0,3.0
802,129,120,38.5,3.3485,1.0,24.5,27.0,11.5,10.0,11.0,8.0,6.0,3.0,26.0,2.0,22.0,40.0,41.0,51.0,48.0,39.0,3.0
803,129,150,33.0,3.7895000000000003,1.0,49.0,27.0,6.0,10.0,11.0,8.0,6.0,3.0,26.0,2.0,22.0,40.0,41.0,51.0,48.0,39.0,3.0
804,129,180,27.0,3.333,0.0,51.0,27.0,0.0,10.0,11.0,8.0,6.0,3.0,26.0,2.0,22.0,40.0,41.0,51.0,48.0,39.0,3.0
805,130,0,93.5,3.29,1.0,28.5,36.0,57.5,13.0,15.0,11.0,9.0,7.0,27.0,5.0,36.0,37.0,39.0,46.0,46.0,36.0,3.0
806,130,30,94.0,3.286,1.0,47.5,36.0,58.0,13.0,15.0,11.0,9.0,7.0,27.0,5.0,36.0,37.0,39.0,46.0,46.0,36.0,3.0
807,130,60,86.0,3.471,1.0,41.5,36.0,50.0,13.0,15.0,11.0,9.0,7.0,27.0,5.0,36.0,37.0,39.0,46.0,46.0,36.0,3.0
808,130,90,80.5,3.583,1.0,55.5,36.0,44.5,13.0,15.0,11.0,9.0,7.0,27.0,5.0,36.0,37.0,39.0,46.0,46.0,36.0,3.0
809,130,120,46.5,3.8145,1.0,34.0,36.0,10.5,13.0,15.0,11.0,9.0,7.0,27.0,5.0,36.0,37.0,39.0,46.0,46.0,36.0,3.0
810,130,150,38.0,3.544,1.0,53.5,36.0,2.0,13.0,15.0,11.0,9.0,7.0,27.0,5.0,36.0,37.0,39.0,46.0,46.0,36.0,3.0
811,130,180,36.0,3.9930000000000003,1.0,37.5,36.0,0.0,13.0,15.0,11.0,9.0,7.0,27.0,5.0,36.0,37.0,39.0,46.0,46.0,36.0,3.0
812,131,0,81.0,2.282,1.0,37.0,15.0,66.0,23.0,27.0,8.0,19.0,19.0,13.0,5.0,45.0,23.0,36.0,40.0,42.0,54.0,1.0
813,131,30,83.0,2.098,1.0,53.0,15.0,68.0,23.0,27.0,8.0,19.0,19.0,13.0,5.0,45.0,23.0,36.0,40.0,42.0,54.0,1.0
814,131,60,70.5,2.3945,1.0,29.0,15.0,55.5,23.0,27.0,8.0,19.0,19.0,13.0,5.0,45.0,23.0,36.0,40.0,42.0,54.0,1.0
815,131,90,66.5,2.3085,1.0,37.0,15.0,51.5,23.0,27.0,8.0,19.0,19.0,13.0,5.0,45.0,23.0,36.0,40.0,42.0,54.0,1.0
816,131,120,21.5,2.683,1.0,19.0,15.0,6.5,23.0,27.0,8.0,19.0,19.0,13.0,5.0,45.0,23.0,36.0,40.0,42.0,54.0,1.0
817,131,150,13.0,2.1704999999999997,0.5,41.0,15.0,-2.0,23.0,27.0,8.0,19.0,19.0,13.0,5.0,45.0,23.0,36.0,40.0,42.0,54.0,1.0
818,131,180,15.0,2.1955,1.0,58.5,15.0,0.0,23.0,27.0,8.0,19.0,19.0,13.0,5.0,45.0,23.0,36.0,40.0,42.0,54.0,1.0
819,132,0,82.0,4.8745,1.0,28.5,54.5,27.5,9.0,16.0,10.0,16.666666666666668,12.22222222222222,16.0,2.0,33.0,43.0,39.0,40.0,42.0,49.0,3.0
820,132,30,78.5,3.6895,1.0,34.0,54.5,24.0,9.0,16.0,10.0,16.666666666666668,12.22222222222222,16.0,2.0,33.0,43.0,39.0,40.0,42.0,49.0,3.0
821,132,60,76.0,4.3265,1.0,50.5,54.5,21.5,9.0,16.0,10.0,16.666666666666668,12.22222222222222,16.0,2.0,33.0,43.0,39.0,40.0,42.0,49.0,3.0
822,132,90,72.5,3.7409999999999997,1.0,29.0,54.5,18.0,9.0,16.0,10.0,16.666666666666668,12.22222222222222,16.0,2.0,33.0,43.0,39.0,40.0,42.0,49.0,3.0
823,132,120,59.0,4.5055,1.0,51.0,54.5,4.5,9.0,16.0,10.0,16.666666666666668,12.22222222222222,16.0,2.0,33.0,43.0,39.0,40.0,42.0,49.0,3.0
824,132,150,54.5,4.1745,1.0,35.5,54.5,0.0,9.0,16.0,10.0,16.666666666666668,12.22222222222222,16.0,2.0,33.0,43.0,39.0,40.0,42.0,49.0,3.0
825,132,180,54.5,5.179,0.0,54.0,54.5,0.0,9.0,16.0,10.0,16.666666666666668,12.22222222222222,16.0,2.0,33.0,43.0,39.0,40.0,42.0,49.0,3.0
826,133,0,85.0,2.741,1.0,30.0,7.5,77.5,10.0,18.0,7.0,22.0,11.0,24.0,3.0,22.0,28.0,48.0,40.0,51.0,36.0,10.0
827,133,30,79.5,2.512,1.0,49.0,7.5,72.0,10.0,18.0,7.0,22.0,11.0,24.0,3.0,22.0,28.0,48.0,40.0,51.0,36.0,10.0
828,133,60,71.5,2.706,1.0,44.5,7.5,64.0,10.0,18.0,7.0,22.0,11.0,24.0,3.0,22.0,28.0,48.0,40.0,51.0,36.0,10.0
829,133,90,62.0,2.793,1.0,49.5,7.5,54.5,10.0,18.0,7.0,22.0,11.0,24.0,3.0,22.0,28.0,48.0,40.0,51.0,36.0,10.0
830,133,120,16.0,3.0025,1.0,30.0,7.5,8.5,10.0,18.0,7.0,22.0,11.0,24.0,3.0,22.0,28.0,48.0,40.0,51.0,36.0,10.0
831,133,150,11.0,2.875,1.0,47.5,7.5,3.5,10.0,18.0,7.0,22.0,11.0,24.0,3.0,22.0,28.0,48.0,40.0,51.0,36.0,10.0
832,133,180,7.5,2.9385,0.0,47.5,7.5,0.0,10.0,18.0,7.0,22.0,11.0,24.0,3.0,22.0,28.0,48.0,40.0,51.0,36.0,10.0
833,134,0,100.0,2.9725,1.0,41.0,2.0,98.0,17.0,19.0,7.0,14.0,8.0,25.0,9.0,34.0,37.0,40.0,45.0,48.0,40.0,3.0
834,134,30,100.0,3.0854999999999997,1.0,30.5,2.0,98.0,17.0,19.0,7.0,14.0,8.0,25.0,9.0,34.0,37.0,40.0,45.0,48.0,40.0,3.0
835,134,60,99.0,3.8550000000000004,1.0,42.5,2.0,97.0,17.0,19.0,7.0,14.0,8.0,25.0,9.0,34.0,37.0,40.0,45.0,48.0,40.0,3.0
836,134,90,71.5,4.8875,1.0,14.5,2.0,69.5,17.0,19.0,7.0,14.0,8.0,25.0,9.0,34.0,37.0,40.0,45.0,48.0,40.0,3.0
837,134,120,9.0,5.2165,1.0,38.0,2.0,7.0,17.0,19.0,7.0,14.0,8.0,25.0,9.0,34.0,37.0,40.0,45.0,48.0,40.0,3.0
838,134,150,1.0,5.0565,1.0,58.5,2.0,-1.0,17.0,19.0,7.0,14.0,8.0,25.0,9.0,34.0,37.0,40.0,45.0,48.0,40.0,3.0
839,134,180,2.0,5.616,0.0,50.0,2.0,0.0,17.0,19.0,7.0,14.0,8.0,25.0,9.0,34.0,37.0,40.0,45.0,48.0,40.0,3.0
840,135,0,91.0,2.7184999999999997,1.0,48.0,11.0,80.0,12.0,16.0,14.0,20.0,10.0,29.0,11.0,27.0,45.0,33.0,37.0,47.0,32.0,8.0
841,135,30,91.5,2.395,1.0,56.5,11.0,80.5,12.0,16.0,14.0,20.0,10.0,29.0,11.0,27.0,45.0,33.0,37.0,47.0,32.0,8.0
842,135,60,86.5,2.8735,1.0,39.5,11.0,75.5,12.0,16.0,14.0,20.0,10.0,29.0,11.0,27.0,45.0,33.0,37.0,47.0,32.0,8.0
843,135,90,76.5,2.6050000000000004,1.0,39.5,11.0,65.5,12.0,16.0,14.0,20.0,10.0,29.0,11.0,27.0,45.0,33.0,37.0,47.0,32.0,8.0
844,135,120,46.0,2.6704999999999997,1.0,31.5,11.0,35.0,12.0,16.0,14.0,20.0,10.0,29.0,11.0,27.0,45.0,33.0,37.0,47.0,32.0,8.0
845,135,150,32.5,2.793,1.0,35.5,11.0,21.5,12.0,16.0,14.0,20.0,10.0,29.0,11.0,27.0,45.0,33.0,37.0,47.0,32.0,8.0
846,135,180,11.0,2.9475,0.0,51.0,11.0,0.0,12.0,16.0,14.0,20.0,10.0,29.0,11.0,27.0,45.0,33.0,37.0,47.0,32.0,8.0
847,136,0,92.0,2.2439999999999998,1.0,44.5,19.0,73.0,13.0,22.0,14.0,20.0,6.0,4.0,0.0,47.0,31.0,34.90909090909091,44.0,40.36363636363637,54.0,3.0
848,136,30,88.0,2.168,1.0,40.0,19.0,69.0,13.0,22.0,14.0,20.0,6.0,4.0,0.0,47.0,31.0,34.90909090909091,44.0,40.36363636363637,54.0,3.0
849,136,60,87.5,1.9895,1.0,47.0,19.0,68.5,13.0,22.0,14.0,20.0,6.0,4.0,0.0,47.0,31.0,34.90909090909091,44.0,40.36363636363637,54.0,3.0
850,136,90,82.0,2.4615,1.0,23.0,19.0,63.0,13.0,22.0,14.0,20.0,6.0,4.0,0.0,47.0,31.0,34.90909090909091,44.0,40.36363636363637,54.0,3.0
851,136,120,29.0,2.1645000000000003,1.0,44.0,19.0,10.0,13.0,22.0,14.0,20.0,6.0,4.0,0.0,47.0,31.0,34.90909090909091,44.0,40.36363636363637,54.0,3.0
852,136,150,20.0,2.324,0.5,39.5,19.0,1.0,13.0,22.0,14.0,20.0,6.0,4.0,0.0,47.0,31.0,34.90909090909091,44.0,40.36363636363637,54.0,3.0
853,136,180,19.0,2.2925,0.0,48.0,19.0,0.0,13.0,22.0,14.0,20.0,6.0,4.0,0.0,47.0,31.0,34.90909090909091,44.0,40.36363636363637,54.0,3.0
854,137,0,92.5,3.9725,1.0,29.5,34.0,58.5,17.77777777777778,19.0,11.0,12.0,15.0,22.0,6.0,29.0,30.0,48.0,41.0,34.0,48.0,4.0
855,137,30,91.5,4.0280000000000005,1.0,39.5,34.0,57.5,17.77777777777778,19.0,11.0,12.0,15.0,22.0,6.0,29.0,30.0,48.0,41.0,34.0,48.0,4.0
856,137,60,93.5,3.814,1.0,50.5,34.0,59.5,17.77777777777778,19.0,11.0,12.0,15.0,22.0,6.0,29.0,30.0,48.0,41.0,34.0,48.0,4.0
857,137,90,79.5,3.84,1.0,36.5,34.0,45.5,17.77777777777778,19.0,11.0,12.0,15.0,22.0,6.0,29.0,30.0,48.0,41.0,34.0,48.0,4.0
858,137,120,54.0,4.0915,1.0,53.0,34.0,20.0,17.77777777777778,19.0,11.0,12.0,15.0,22.0,6.0,29.0,30.0,48.0,41.0,34.0,48.0,4.0
859,137,150,50.0,4.292,1.0,44.5,34.0,16.0,17.77777777777778,19.0,11.0,12.0,15.0,22.0,6.0,29.0,30.0,48.0,41.0,34.0,48.0,4.0
860,137,180,34.0,4.6274999999999995,0.0,48.5,34.0,0.0,17.77777777777778,19.0,11.0,12.0,15.0,22.0,6.0,29.0,30.0,48.0,41.0,34.0,48.0,4.0
861,138,0,91.0,2.702,1.0,46.5,9.0,82.0,21.0,20.0,20.0,18.0,15.0,15.555555555555555,4.0,32.72727272727273,27.0,37.0,40.0,42.0,59.0,2.0
862,138,30,92.0,3.3840000000000003,1.0,46.0,9.0,83.0,21.0,20.0,20.0,18.0,15.0,15.555555555555555,4.0,32.72727272727273,27.0,37.0,40.0,42.0,59.0,2.0
863,138,60,84.0,3.4145000000000003,1.0,34.0,9.0,75.0,21.0,20.0,20.0,18.0,15.0,15.555555555555555,4.0,32.72727272727273,27.0,37.0,40.0,42.0,59.0,2.0
864,138,90,71.5,3.224,1.0,25.5,9.0,62.5,21.0,20.0,20.0,18.0,15.0,15.555555555555555,4.0,32.72727272727273,27.0,37.0,40.0,42.0,59.0,2.0
865,138,120,14.0,3.76,1.0,41.5,9.0,5.0,21.0,20.0,20.0,18.0,15.0,15.555555555555555,4.0,32.72727272727273,27.0,37.0,40.0,42.0,59.0,2.0
866,138,150,9.0,3.233,1.0,50.5,9.0,0.0,21.0,20.0,20.0,18.0,15.0,15.555555555555555,4.0,32.72727272727273,27.0,37.0,40.0,42.0,59.0,2.0
867,138,180,9.0,3.1805,0.0,21.5,9.0,0.0,21.0,20.0,20.0,18.0,15.0,15.555555555555555,4.0,32.72727272727273,27.0,37.0,40.0,42.0,59.0,2.0
868,139,0,73.0,2.566,1.0,53.0,41.5,31.5,14.0,11.0,14.0,14.0,14.0,25.0,23.33333333333333,38.0,40.0,34.0,39.0,38.0,47.0,2.0
869,139,30,72.5,2.6734999999999998,1.0,34.0,41.5,31.0,14.0,11.0,14.0,14.0,14.0,25.0,23.33333333333333,38.0,40.0,34.0,39.0,38.0,47.0,2.0
870,139,60,75.0,2.497,1.0,32.0,41.5,33.5,14.0,11.0,14.0,14.0,14.0,25.0,23.33333333333333,38.0,40.0,34.0,39.0,38.0,47.0,2.0
871,139,90,74.5,2.6445,1.0,56.5,41.5,33.0,14.0,11.0,14.0,14.0,14.0,25.0,23.33333333333333,38.0,40.0,34.0,39.0,38.0,47.0,2.0
872,139,120,67.0,2.6265,1.0,43.0,41.5,25.5,14.0,11.0,14.0,14.0,14.0,25.0,23.33333333333333,38.0,40.0,34.0,39.0,38.0,47.0,2.0
873,139,150,53.0,2.6265,1.0,36.5,41.5,11.5,14.0,11.0,14.0,14.0,14.0,25.0,23.33333333333333,38.0,40.0,34.0,39.0,38.0,47.0,2.0
874,139,180,41.5,3.2024999999999997,0.0,28.0,41.5,0.0,14.0,11.0,14.0,14.0,14.0,25.0,23.33333333333333,38.0,40.0,34.0,39.0,38.0,47.0,2.0
875,141,0,85.5,3.5615,1.0,61.0,32.0,53.5,18.0,16.0,10.0,14.0,11.0,18.0,12.0,50.0,30.0,33.0,42.0,45.0,43.0,3.0
876,141,30,85.0,3.788,1.0,32.5,32.0,53.0,18.0,16.0,10.0,14.0,11.0,18.0,12.0,50.0,30.0,33.0,42.0,45.0,43.0,3.0
