,subID,subtlety,slider,RT,accuracy,trial_ind,rating180,diff_from_180
0,2,0,98.5,2.458,1.0,36.0,13.0,85.5
1,2,30,91.0,2.4005,1.0,46.0,13.0,78.0
2,2,60,86.0,2.4195,1.0,48.5,13.0,73.0
3,2,90,70.5,2.3164999999999996,1.0,35.5,13.0,57.5
4,2,120,53.0,2.738,1.0,45.5,13.0,40.0
5,2,150,15.0,3.0265,1.0,33.5,13.0,2.0
6,2,180,13.0,2.718,0.5,41.0,13.0,0.0
7,4,0,83.0,4.447,1.0,31.0,36.0,47.0
8,4,30,81.5,4.4384999999999994,1.0,21.0,36.0,45.5
9,4,60,69.0,5.7485,1.0,40.5,36.0,33.0
10,4,90,63.5,3.8805,1.0,52.0,36.0,27.5
11,4,120,49.0,4.7620000000000005,1.0,31.5,36.0,13.0
12,4,150,36.0,4.661,1.0,57.5,36.0,0.0
13,4,180,36.0,4.4405,0.0,39.5,36.0,0.0
14,5,0,86.0,2.7809999999999997,1.0,34.5,39.5,46.5
15,5,30,88.0,2.88,1.0,32.0,39.5,48.5
16,5,60,84.0,2.9779999999999998,1.0,31.0,39.5,44.5
17,5,90,65.0,2.719,1.0,60.0,39.5,25.5
18,5,120,44.5,2.876,1.0,46.5,39.5,5.0
19,5,150,42.0,2.6695,1.0,53.0,39.5,2.5
20,5,180,39.5,2.9655,0.5,25.5,39.5,0.0
21,6,0,78.5,2.9725,1.0,40.0,43.0,35.5
22,6,30,66.5,3.3274999999999997,1.0,32.0,43.0,23.5
23,6,60,68.0,3.0069999999999997,1.0,52.0,43.0,25.0
24,6,90,62.5,2.9005,1.0,48.5,43.0,19.5
25,6,120,57.5,3.216,1.0,49.0,43.0,14.5
26,6,150,42.0,3.3049999999999997,1.0,50.5,43.0,-1.0
27,6,180,43.0,4.478,0.0,22.5,43.0,0.0
28,7,0,93.0,1.8165,1.0,51.0,31.5,61.5
29,7,30,89.5,1.783,1.0,44.0,31.5,58.0
30,7,60,86.5,1.973,1.0,32.0,31.5,55.0
31,7,90,68.0,2.1035000000000004,1.0,28.5,31.5,36.5
32,7,120,34.0,2.1415,1.0,52.0,31.5,2.5
33,7,150,29.0,2.057,1.0,40.0,31.5,-2.5
34,7,180,31.5,2.386,1.0,36.5,31.5,0.0
35,9,0,84.5,1.814,1.0,48.0,4.5,80.0
36,9,30,83.5,1.879,1.0,47.0,4.5,79.0
37,9,60,73.5,1.9020000000000001,1.0,40.5,4.5,69.0
38,9,90,61.5,2.3265000000000002,1.0,29.5,4.5,57.0
39,9,120,19.5,1.9705,1.0,50.0,4.5,15.0
40,9,150,8.5,2.0415,1.0,34.5,4.5,4.0
41,9,180,4.5,2.2855,1.0,34.0,4.5,0.0
42,10,0,97.0,3.4335,1.0,40.0,5.5,91.5
43,10,30,97.5,2.979,1.0,44.0,5.5,92.0
44,10,60,97.5,3.7455,1.0,15.5,5.5,92.0
45,10,90,95.5,3.7145,1.0,44.5,5.5,90.0
46,10,120,6.0,3.493,1.0,52.0,5.5,0.5
47,10,150,5.0,3.8415,0.0,46.0,5.5,-0.5
48,10,180,5.5,3.4765,1.0,45.5,5.5,0.0
49,12,0,100.0,1.9095,1.0,30.5,0.5,99.5
50,12,30,100.0,1.901,1.0,65.0,0.5,99.5
51,12,60,100.0,2.107,1.0,47.5,0.5,99.5
52,12,90,100.0,2.4210000000000003,1.0,27.5,0.5,99.5
53,12,120,94.5,2.341,1.0,36.5,0.5,94.0
54,12,150,33.0,2.938,1.0,47.5,0.5,32.5
55,12,180,0.5,2.8415,1.0,35.5,0.5,0.0
56,13,0,100.0,3.49,1.0,45.5,23.5,76.5
57,13,30,96.5,4.4455,1.0,53.0,23.5,73.0
58,13,60,86.0,3.705,1.0,27.0,23.5,62.5
59,13,90,88.0,3.255,1.0,42.0,23.5,64.5
60,13,120,31.0,3.324,1.0,36.0,23.5,7.5
61,13,150,6.0,3.572,1.0,37.0,23.5,-17.5
62,13,180,23.5,3.8869999999999996,1.0,52.0,23.5,0.0
63,14,0,100.0,3.1395,1.0,37.5,2.0,98.0
64,14,30,98.0,3.214,1.0,38.5,2.0,96.0
65,14,60,97.0,3.0195,1.0,39.5,2.0,95.0
66,14,90,87.5,3.209,1.0,22.5,2.0,85.5
67,14,120,11.0,3.109,1.0,46.0,2.0,9.0
68,14,150,9.0,3.4995,1.0,53.0,2.0,7.0
69,14,180,2.0,3.311,1.0,65.5,2.0,0.0
70,15,0,83.5,6.6565,1.0,45.0,71.0,12.5
71,15,30,73.5,5.7805,1.0,25.0,71.0,2.5
72,15,60,78.0,5.208,1.0,45.0,71.0,7.0
73,15,90,73.5,5.026,1.0,37.0,71.0,2.5
74,15,120,71.0,5.4115,1.0,30.5,71.0,0.0
75,15,150,51.5,5.768,1.0,46.0,71.0,-19.5
76,15,180,71.0,5.532,1.0,47.5,71.0,0.0
77,16,0,88.0,6.3505,1.0,61.0,22.0,66.0
78,16,30,88.5,5.797499999999999,1.0,37.5,22.0,66.5
79,16,60,82.5,6.606,1.0,19.0,22.0,60.5
80,16,90,70.0,5.9155,1.0,25.0,22.0,48.0
81,16,120,56.5,5.677,1.0,50.5,22.0,34.5
82,16,150,23.5,6.208,1.0,36.0,22.0,1.5
83,16,180,22.0,5.577999999999999,0.0,56.5,22.0,0.0
84,18,0,83.0,3.177,1.0,59.0,21.0,62.0
85,18,30,76.5,2.995,1.0,46.5,21.0,55.5
86,18,60,75.0,2.5315,1.0,32.5,21.0,54.0
87,18,90,66.0,2.785,1.0,23.5,21.0,45.0
88,18,120,36.5,3.0575,1.0,49.0,21.0,15.5
89,18,150,23.5,2.935,1.0,34.0,21.0,2.5
90,18,180,21.0,3.4690000000000003,0.5,30.0,21.0,0.0
91,19,0,96.0,2.846,1.0,27.0,4.5,91.5
92,19,30,94.0,2.9645,1.0,38.5,4.5,89.5
93,19,60,87.0,2.7575000000000003,1.0,40.5,4.5,82.5
94,19,90,64.0,2.8230000000000004,1.0,59.5,4.5,59.5
95,19,120,47.0,3.003,1.0,44.5,4.5,42.5
96,19,150,7.5,3.5055,1.0,28.5,4.5,3.0
97,19,180,4.5,3.1174999999999997,0.5,49.0,4.5,0.0
98,20,0,81.5,3.958,1.0,42.0,28.5,53.0
99,20,30,86.5,3.8455,1.0,41.0,28.5,58.0
100,20,60,74.0,3.8895,1.0,39.0,28.5,45.5
101,20,90,69.0,4.08,1.0,45.5,28.5,40.5
102,20,120,38.0,4.4265,1.0,48.0,28.5,9.5
103,20,150,26.0,4.064,0.0,27.0,28.5,-2.5
104,20,180,28.5,4.6425,1.0,39.5,28.5,0.0
105,21,0,97.5,2.9565,1.0,31.5,14.5,83.0
106,21,30,98.0,3.4765,1.0,63.0,14.5,83.5
107,21,60,97.5,3.041,1.0,48.5,14.5,83.0
108,21,90,62.5,3.311,1.0,27.0,14.5,48.0
109,21,120,34.0,3.3515,1.0,50.0,14.5,19.5
110,21,150,10.5,3.118,1.0,29.5,14.5,-4.0
111,21,180,14.5,3.297,0.0,39.0,14.5,0.0
112,25,0,98.0,2.527,1.0,33.0,1.0,97.0
113,25,30,96.0,2.2960000000000003,1.0,52.0,1.0,95.0
114,25,60,98.0,2.6415,1.0,30.0,1.0,97.0
115,25,90,98.0,2.414,1.0,49.5,1.0,97.0
116,25,120,98.0,2.4939999999999998,1.0,36.5,1.0,97.0
117,25,150,1.0,2.901,1.0,28.5,1.0,0.0
118,25,180,1.0,3.0385,1.0,57.0,1.0,0.0
119,26,0,100.0,3.6784999999999997,1.0,49.5,0.0,100.0
120,26,30,100.0,3.049,1.0,54.5,0.0,100.0
121,26,60,100.0,2.9595000000000002,1.0,38.0,0.0,100.0
122,26,90,83.0,2.694,1.0,38.0,0.0,83.0
123,26,120,47.5,3.485,1.0,40.0,0.0,47.5
124,26,150,0.0,3.154,0.5,29.5,0.0,0.0
125,26,180,0.0,3.107,1.0,49.5,0.0,0.0
126,27,0,98.5,3.1445,1.0,36.0,3.0,95.5
127,27,30,98.0,2.7954999999999997,1.0,44.5,3.0,95.0
128,27,60,97.0,3.696,1.0,50.0,3.0,94.0
129,27,90,97.0,4.0465,1.0,53.0,3.0,94.0
130,27,120,7.0,3.8715,1.0,43.5,3.0,4.0
131,27,150,3.0,3.444,0.5,44.0,3.0,0.0
132,27,180,3.0,4.209,1.0,38.0,3.0,0.0
133,28,0,92.0,1.602,1.0,33.0,17.0,75.0
134,28,30,88.0,1.768,1.0,43.0,17.0,71.0
135,28,60,87.0,1.983,1.0,49.5,17.0,70.0
136,28,90,86.0,1.7835,1.0,44.5,17.0,69.0
137,28,120,27.5,2.497,1.0,53.0,17.0,10.5
138,28,150,24.5,2.554,1.0,25.5,17.0,7.5
139,28,180,17.0,2.104,0.5,36.0,17.0,0.0
140,29,0,100.0,3.5694999999999997,1.0,47.0,0.0,100.0
141,29,30,100.0,3.726,1.0,43.5,0.0,100.0
142,29,60,100.0,4.1185,1.0,43.5,0.0,100.0
143,29,90,100.0,4.6785,1.0,25.0,0.0,100.0
144,29,120,7.0,4.8759999999999994,1.0,43.5,0.0,7.0
145,29,150,1.5,4.5385,1.0,25.5,0.0,1.5
146,29,180,0.0,4.7915,1.0,57.0,0.0,0.0
147,31,0,90.0,3.2965,1.0,33.0,36.0,54.0
148,31,30,82.0,3.324,1.0,45.5,36.0,46.0
149,31,60,68.0,3.292,1.0,51.0,36.0,32.0
150,31,90,68.0,3.2365,1.0,34.5,36.0,32.0
151,31,120,57.0,3.2755,1.0,36.0,36.0,21.0
152,31,150,14.5,3.5,1.0,57.5,36.0,-21.5
153,31,180,36.0,3.319,0.5,40.0,36.0,0.0
154,33,0,98.0,2.8555,1.0,31.0,8.0,90.0
155,33,30,100.0,2.5175,1.0,31.5,8.0,92.0
156,33,60,91.5,2.859,1.0,41.0,8.0,83.5
157,33,90,76.0,2.8325,1.0,32.0,8.0,68.0
158,33,120,13.0,3.6265,1.0,61.5,8.0,5.0
159,33,150,6.0,3.6055,1.0,49.0,8.0,-2.0
160,33,180,8.0,3.6479999999999997,1.0,60.5,8.0,0.0
161,34,0,86.0,2.5275,1.0,50.5,59.5,26.5
162,34,30,86.5,2.378,1.0,43.5,59.5,27.0
163,34,60,79.0,2.4240000000000004,1.0,49.5,59.5,19.5
164,34,90,82.0,2.4045,1.0,29.0,59.5,22.5
165,34,120,45.5,2.6035000000000004,1.0,32.0,59.5,-14.0
166,34,150,19.0,2.669,1.0,47.5,59.5,-40.5
167,34,180,59.5,2.5705,1.0,48.5,59.5,0.0
168,35,0,100.0,2.871,1.0,56.5,2.0,98.0
169,35,30,99.5,2.976,1.0,30.0,2.0,97.5
170,35,60,100.0,3.0279999999999996,1.0,34.0,2.0,98.0
171,35,90,100.0,2.961,1.0,55.0,2.0,98.0
172,35,120,23.5,3.0175,1.0,34.0,2.0,21.5
173,35,150,4.5,2.942,1.0,41.5,2.0,2.5
174,35,180,2.0,3.0075000000000003,0.5,32.0,2.0,0.0
175,37,0,100.0,2.011,1.0,39.5,0.0,100.0
176,37,30,100.0,1.8849999999999998,1.0,48.0,0.0,100.0
177,37,60,100.0,2.0305,1.0,32.5,0.0,100.0
178,37,90,100.0,2.026,1.0,30.0,0.0,100.0
179,37,120,0.0,1.8835000000000002,1.0,25.5,0.0,0.0
180,37,150,0.0,2.017,1.0,46.5,0.0,0.0
181,37,180,0.0,2.365,0.5,45.5,0.0,0.0
182,41,0,86.5,3.373,1.0,59.0,68.5,18.0
183,41,30,86.5,3.2515,1.0,24.5,68.5,18.0
184,41,60,85.5,3.439,1.0,26.0,68.5,17.0
185,41,90,75.5,3.452,1.0,51.5,68.5,7.0
186,41,120,76.5,3.7055,1.0,53.0,68.5,8.0
187,41,150,65.5,4.561,1.0,45.5,68.5,-3.0
188,41,180,68.5,3.851,1.0,37.5,68.5,0.0
189,42,0,97.5,3.285,1.0,20.5,2.5,95.0
190,42,30,96.5,3.0780000000000003,1.0,50.5,2.5,94.0
191,42,60,91.5,2.8415,1.0,42.0,2.5,89.0
192,42,90,71.0,3.3265000000000002,1.0,39.0,2.5,68.5
193,42,120,4.0,2.591,1.0,44.5,2.5,1.5
194,42,150,0.0,3.1435,1.0,62.5,2.5,-2.5
195,42,180,2.5,2.963,0.5,37.0,2.5,0.0
196,43,0,82.5,3.083,1.0,51.5,40.0,42.5
197,43,30,80.0,2.7525,1.0,28.5,40.0,40.0
198,43,60,75.5,3.265,1.0,21.5,40.0,35.5
199,43,90,75.0,3.6885,1.0,49.0,40.0,35.0
200,43,120,69.5,2.7329999999999997,1.0,50.0,40.0,29.5
201,43,150,42.5,2.5875000000000004,1.0,47.0,40.0,2.5
202,43,180,40.0,3.2145,1.0,53.5,40.0,0.0
203,44,0,88.0,1.7040000000000002,1.0,55.0,20.5,67.5
204,44,30,88.5,1.646,1.0,57.0,20.5,68.0
205,44,60,87.5,1.7389999999999999,1.0,42.0,20.5,67.0
206,44,90,74.0,1.754,1.0,42.5,20.5,53.5
207,44,120,30.5,1.756,1.0,23.0,20.5,10.0
208,44,150,15.0,1.88,1.0,29.5,20.5,-5.5
209,44,180,20.5,1.844,1.0,49.0,20.5,0.0
210,45,0,98.0,3.71,1.0,41.5,7.0,91.0
211,45,30,100.0,3.5435,1.0,37.0,7.0,93.0
212,45,60,96.0,3.9495,1.0,38.0,7.0,89.0
213,45,90,96.0,3.5789999999999997,1.0,53.5,7.0,89.0
214,45,120,36.5,3.5244999999999997,1.0,48.0,7.0,29.5
215,45,150,4.0,3.667,0.5,47.0,7.0,-3.0
216,45,180,7.0,3.4805,0.0,32.5,7.0,0.0
217,46,0,92.5,4.3835,1.0,51.0,21.0,71.5
218,46,30,91.0,4.0905000000000005,1.0,34.5,21.0,70.0
219,46,60,80.5,3.5300000000000002,1.0,62.5,21.0,59.5
220,46,90,64.0,3.9145000000000003,1.0,30.5,21.0,43.0
221,46,120,50.0,3.8255,1.0,39.0,21.0,29.0
222,46,150,37.0,4.2780000000000005,1.0,33.5,21.0,16.0
223,46,180,21.0,4.0435,1.0,47.5,21.0,0.0
224,47,0,100.0,3.101,1.0,59.0,2.0,98.0
225,47,30,100.0,2.3825000000000003,1.0,34.5,2.0,98.0
226,47,60,98.0,2.847,1.0,33.5,2.0,96.0
227,47,90,99.5,2.8289999999999997,1.0,46.0,2.0,97.5
228,47,120,7.5,2.745,1.0,38.5,2.0,5.5
229,47,150,12.0,3.3695,0.5,46.0,2.0,10.0
230,47,180,2.0,2.857,0.5,46.5,2.0,0.0
231,48,0,99.5,2.357,1.0,39.0,33.5,66.0
232,48,30,97.5,2.5060000000000002,1.0,44.0,33.5,64.0
233,48,60,89.0,2.726,1.0,45.5,33.5,55.5
234,48,90,84.5,2.303,1.0,27.0,33.5,51.0
235,48,120,48.0,2.3575,1.0,46.0,33.5,14.5
236,48,150,37.0,2.6275000000000004,1.0,28.0,33.5,3.5
237,48,180,33.5,2.371,0.5,53.5,33.5,0.0
238,50,0,90.0,2.827,1.0,40.5,0.0,90.0
239,50,30,88.5,2.9935,1.0,37.5,0.0,88.5
240,50,60,81.0,3.0505,1.0,31.0,0.0,81.0
241,50,90,64.0,3.202,1.0,18.0,0.0,64.0
242,50,120,3.0,3.229,1.0,45.0,0.0,3.0
243,50,150,0.0,3.0895,1.0,54.5,0.0,0.0
244,50,180,0.0,3.3865,1.0,54.5,0.0,0.0
245,55,0,100.0,2.479,1.0,58.0,16.5,83.5
246,55,30,100.0,2.505,1.0,51.0,16.5,83.5
247,55,60,100.0,2.4924999999999997,1.0,36.5,16.5,83.5
248,55,90,75.0,2.6630000000000003,1.0,45.5,16.5,58.5
249,55,120,62.0,2.4215,1.0,40.5,16.5,45.5
250,55,150,9.5,2.4025,1.0,40.5,16.5,-7.0
251,55,180,16.5,2.5425,0.0,27.0,16.5,0.0
252,60,0,100.0,3.5065,1.0,41.5,22.0,78.0
253,60,30,100.0,3.4995000000000003,1.0,34.0,22.0,78.0
254,60,60,98.0,4.051,1.0,36.0,22.0,76.0
255,60,90,76.5,3.915,1.0,51.5,22.0,54.5
256,60,120,63.5,4.096,1.0,38.5,22.0,41.5
257,60,150,6.5,4.011,1.0,35.5,22.0,-15.5
258,60,180,22.0,3.692,1.0,46.5,22.0,0.0
259,63,0,100.0,3.379,1.0,44.5,3.5,96.5
260,63,30,100.0,3.8325,1.0,27.5,3.5,96.5
261,63,60,94.5,3.9435000000000002,1.0,40.0,3.5,91.0
262,63,90,80.0,3.843,1.0,30.5,3.5,76.5
263,63,120,11.0,3.9459999999999997,1.0,52.5,3.5,7.5
264,63,150,0.0,4.0715,1.0,43.0,3.5,-3.5
265,63,180,3.5,3.849,0.5,46.5,3.5,0.0
266,65,0,88.5,2.7735000000000003,1.0,47.5,29.5,59.0
267,65,30,89.5,3.17,1.0,38.5,29.5,60.0
268,65,60,83.0,3.4725,1.0,50.0,29.5,53.5
269,65,90,80.0,3.0300000000000002,1.0,52.5,29.5,50.5
270,65,120,48.5,3.785,1.0,31.5,29.5,19.0
271,65,150,35.0,3.2845,1.0,29.5,29.5,5.5
272,65,180,29.5,3.0815,1.0,43.5,29.5,0.0
273,66,0,91.0,3.1325000000000003,1.0,20.5,19.0,72.0
274,66,30,87.5,3.011,1.0,50.5,19.0,68.5
275,66,60,80.0,3.1790000000000003,1.0,59.0,19.0,61.0
276,66,90,52.0,2.6224999999999996,1.0,47.0,19.0,33.0
277,66,120,32.0,2.9124999999999996,1.0,32.5,19.0,13.0
278,66,150,22.0,2.924,0.0,28.5,19.0,3.0
279,66,180,19.0,2.598,1.0,46.5,19.0,0.0
280,69,0,99.0,2.2315,1.0,36.5,33.5,65.5
281,69,30,95.5,2.4705,1.0,51.5,33.5,62.0
282,69,60,94.0,2.2359999999999998,1.0,58.5,33.5,60.5
283,69,90,82.0,2.5735,1.0,32.0,33.5,48.5
284,69,120,55.0,3.002,1.0,34.0,33.5,21.5
285,69,150,16.0,3.036,0.5,47.0,33.5,-17.5
286,69,180,33.5,2.956,1.0,18.5,33.5,0.0
287,70,0,97.0,2.8735,1.0,45.5,3.0,94.0
288,70,30,93.0,2.9595,1.0,46.0,3.0,90.0
289,70,60,91.0,3.099,1.0,51.5,3.0,88.0
290,70,90,77.5,3.9125,1.0,31.5,3.0,74.5
291,70,120,3.0,3.8049999999999997,1.0,22.5,3.0,0.0
292,70,150,2.5,3.3815,0.0,33.0,3.0,-0.5
293,70,180,3.0,4.085,0.5,54.0,3.0,0.0
294,71,0,93.0,2.1734999999999998,1.0,41.0,51.0,42.0
295,71,30,88.0,2.3495,1.0,47.0,51.0,37.0
296,71,60,81.5,2.324,1.0,39.0,51.0,30.5
297,71,90,62.0,2.7835,1.0,27.5,51.0,11.0
298,71,120,62.5,2.5225,1.0,58.0,51.0,11.5
299,71,150,32.5,4.2675,1.0,32.5,51.0,-18.5
300,71,180,51.0,3.4234999999999998,1.0,42.5,51.0,0.0
301,73,0,100.0,3.4745,1.0,22.0,0.0,100.0
302,73,30,100.0,3.9305,1.0,41.0,0.0,100.0
303,73,60,100.0,3.5495,1.0,33.5,0.0,100.0
304,73,90,91.0,3.6745,1.0,47.5,0.0,91.0
305,73,120,30.0,3.3644999999999996,1.0,45.0,0.0,30.0
306,73,150,2.5,3.7175000000000002,1.0,43.5,0.0,2.5
307,73,180,0.0,3.516,0.0,54.0,0.0,0.0
308,74,0,94.0,3.3495,1.0,32.5,7.0,87.0
309,74,30,93.0,3.1915,1.0,37.0,7.0,86.0
310,74,60,71.5,3.2395,1.0,31.0,7.0,64.5
311,74,90,61.0,3.046,1.0,47.5,7.0,54.0
312,74,120,44.5,3.372,1.0,39.0,7.0,37.5
313,74,150,10.0,3.435,1.0,64.5,7.0,3.0
314,74,180,7.0,3.4859999999999998,0.0,28.0,7.0,0.0
315,75,0,100.0,3.2535,1.0,51.0,15.5,84.5
316,75,30,98.0,2.8805,1.0,34.5,15.5,82.5
317,75,60,96.0,3.0165,1.0,34.5,15.5,80.5
318,75,90,85.0,3.0435,1.0,47.5,15.5,69.5
319,75,120,30.0,3.193,1.0,24.5,15.5,14.5
320,75,150,6.5,3.2,1.0,28.5,15.5,-9.0
321,75,180,15.5,3.3945,1.0,60.5,15.5,0.0
322,78,0,94.5,3.241,1.0,31.5,37.0,57.5
323,78,30,92.5,3.159,1.0,55.5,37.0,55.5
324,78,60,82.5,3.084,1.0,34.0,37.0,45.5
325,78,90,75.5,3.2344999999999997,1.0,38.5,37.0,38.5
326,78,120,42.5,3.6165000000000003,1.0,52.5,37.0,5.5
327,78,150,31.5,3.459,0.0,40.0,37.0,-5.5
328,78,180,37.0,3.303,0.0,45.5,37.0,0.0
329,81,0,100.0,3.4245,1.0,27.0,14.0,86.0
330,81,30,100.0,3.1094999999999997,1.0,48.0,14.0,86.0
331,81,60,92.0,3.1445,1.0,29.5,14.0,78.0
332,81,90,83.0,3.0525,1.0,48.0,14.0,69.0
333,81,120,57.0,3.5774999999999997,1.0,42.0,14.0,43.0
334,81,150,24.5,3.7495000000000003,1.0,49.0,14.0,10.5
335,81,180,14.0,4.73,1.0,41.0,14.0,0.0
336,82,0,79.5,2.104,1.0,66.5,33.5,46.0
337,82,30,88.5,2.226,1.0,47.0,33.5,55.0
338,82,60,75.0,2.4154999999999998,1.0,29.0,33.5,41.5
339,82,90,70.0,2.266,1.0,36.5,33.5,36.5
340,82,120,63.0,2.3845,1.0,38.5,33.5,29.5
341,82,150,43.0,2.2329999999999997,1.0,35.5,33.5,9.5
342,82,180,33.5,2.0875000000000004,1.0,46.5,33.5,0.0
343,83,0,97.5,3.7255000000000003,1.0,42.5,4.5,93.0
344,83,30,97.0,3.7504999999999997,1.0,35.0,4.5,92.5
345,83,60,85.0,4.0905000000000005,1.0,36.5,4.5,80.5
346,83,90,65.5,4.042999999999999,1.0,42.5,4.5,61.0
347,83,120,16.5,4.0175,1.0,47.0,4.5,12.0
348,83,150,3.0,4.175,1.0,46.0,4.5,-1.5
349,83,180,4.5,4.1259999999999994,1.0,57.5,4.5,0.0
350,84,0,100.0,3.496,1.0,38.0,0.0,100.0
351,84,30,100.0,3.1345,1.0,55.0,0.0,100.0
352,84,60,100.0,3.8289999999999997,1.0,32.0,0.0,100.0
353,84,90,100.0,3.6275000000000004,1.0,48.5,0.0,100.0
354,84,120,1.5,3.753,0.5,28.5,0.0,1.5
355,84,150,0.0,3.284,1.0,45.0,0.0,0.0
356,84,180,0.0,3.5575,0.0,36.0,0.0,0.0
357,85,0,100.0,2.361,1.0,41.5,0.0,100.0
358,85,30,100.0,2.3434999999999997,1.0,33.0,0.0,100.0
359,85,60,100.0,2.1775,1.0,66.0,0.0,100.0
360,85,90,64.0,2.4615,1.0,37.5,0.0,64.0
361,85,120,0.0,2.1155,1.0,46.5,0.0,0.0
362,85,150,0.0,2.2435,0.5,32.0,0.0,0.0
363,85,180,0.0,2.1639999999999997,0.5,35.0,0.0,0.0
364,86,0,82.5,2.6555,1.0,47.0,16.5,66.0
365,86,30,78.0,2.4815,1.0,29.0,16.5,61.5
366,86,60,74.5,2.5225,1.0,23.0,16.5,58.0
367,86,90,60.0,2.5205,1.0,60.0,16.5,43.5
368,86,120,28.5,2.683,1.0,53.0,16.5,12.0
369,86,150,15.5,2.7145,1.0,48.5,16.5,-1.0
370,86,180,16.5,2.6355,1.0,40.0,16.5,0.0
371,87,0,78.0,2.5915,1.0,43.5,46.0,32.0
372,87,30,79.5,2.635,1.0,21.5,46.0,33.5
373,87,60,74.0,2.5869999999999997,1.0,39.5,46.0,28.0
374,87,90,65.0,2.5220000000000002,1.0,50.0,46.0,19.0
375,87,120,59.5,2.6265,1.0,48.0,46.0,13.5
376,87,150,44.0,2.894,1.0,43.5,46.0,-2.0
377,87,180,46.0,2.576,1.0,46.5,46.0,0.0
378,89,0,97.5,5.143,1.0,35.0,0.0,97.5
379,89,30,96.0,5.9719999999999995,1.0,41.0,0.0,96.0
380,89,60,80.0,6.6135,1.0,44.5,0.0,80.0
381,89,90,43.0,7.2385,1.0,30.5,0.0,43.0
382,89,120,12.5,5.741,0.5,42.0,0.0,12.5
383,89,150,10.5,5.5485,1.0,52.0,0.0,10.5
384,89,180,0.0,4.9375,1.0,42.5,0.0,0.0
385,90,0,100.0,3.6485000000000003,1.0,38.0,18.5,81.5
386,90,30,97.0,3.5315,1.0,42.0,18.5,78.5
387,90,60,86.0,3.741,1.0,44.0,18.5,67.5
388,90,90,70.0,4.0745000000000005,1.0,44.5,18.5,51.5
389,90,120,37.0,3.823,1.0,56.0,18.5,18.5
390,90,150,25.0,3.9669999999999996,1.0,35.5,18.5,6.5
391,90,180,18.5,3.825,0.5,20.0,18.5,0.0
392,92,0,88.5,2.5015,1.0,49.0,9.5,79.0
393,92,30,78.0,2.303,1.0,17.0,9.5,68.5
394,92,60,71.5,2.329,1.0,50.0,9.5,62.0
395,92,90,67.0,2.451,1.0,55.5,9.5,57.5
396,92,120,38.5,3.121,1.0,22.5,9.5,29.0
397,92,150,32.5,2.5225,1.0,49.0,9.5,23.0
398,92,180,9.5,2.4764999999999997,0.5,41.5,9.5,0.0
399,93,0,90.0,2.8970000000000002,1.0,39.5,22.5,67.5
400,93,30,88.0,2.9215,1.0,68.0,22.5,65.5
401,93,60,88.5,2.9939999999999998,1.0,44.0,22.5,66.0
402,93,90,79.0,2.7190000000000003,1.0,35.0,22.5,56.5
403,93,120,74.5,2.7714999999999996,1.0,54.0,22.5,52.0
404,93,150,22.5,3.074,1.0,29.0,22.5,0.0
405,93,180,22.5,3.133,1.0,35.0,22.5,0.0
406,94,0,93.5,3.5564999999999998,1.0,36.5,15.5,78.0
407,94,30,90.5,3.5375,1.0,32.0,15.5,75.0
408,94,60,83.0,3.6985,1.0,45.5,15.5,67.5
409,94,90,71.0,3.4615,1.0,42.5,15.5,55.5
410,94,120,58.5,3.7424999999999997,1.0,38.5,15.5,43.0
411,94,150,6.0,4.3,1.0,54.0,15.5,-9.5
412,94,180,15.5,4.3065,0.5,62.5,15.5,0.0
413,96,0,100.0,1.9765000000000001,1.0,38.5,29.5,70.5
414,96,30,100.0,2.127,1.0,51.5,29.5,70.5
415,96,60,89.0,2.036,1.0,43.0,29.5,59.5
416,96,90,68.0,1.9465,1.0,45.0,29.5,38.5
417,96,120,52.0,2.403,1.0,38.5,29.5,22.5
418,96,150,19.0,2.4995,0.0,41.0,29.5,-10.5
419,96,180,29.5,2.4835000000000003,0.5,21.0,29.5,0.0
420,98,0,85.0,2.8215,1.0,50.0,54.5,30.5
421,98,30,84.0,2.8145,1.0,34.5,54.5,29.5
422,98,60,76.0,2.7705,1.0,44.0,54.5,21.5
423,98,90,72.0,3.1995,1.0,26.0,54.5,17.5
424,98,120,65.0,3.0285,1.0,46.0,54.5,10.5
425,98,150,60.5,2.86,1.0,55.0,54.5,6.0
426,98,180,54.5,3.1935000000000002,0.5,34.5,54.5,0.0
427,101,0,96.0,2.3885,1.0,58.5,17.0,79.0
428,101,30,82.0,3.558,1.0,21.5,17.0,65.0
429,101,60,85.0,3.0774999999999997,1.0,47.0,17.0,68.0
430,101,90,73.0,3.0555000000000003,1.0,54.5,17.0,56.0
431,101,120,25.0,2.9725,1.0,41.0,17.0,8.0
432,101,150,7.0,2.747,1.0,50.0,17.0,-10.0
433,101,180,17.0,3.053,1.0,26.0,17.0,0.0
434,102,0,97.5,2.172,1.0,44.5,5.5,92.0
435,102,30,92.0,2.2874999999999996,1.0,43.5,5.5,86.5
436,102,60,77.5,2.4145000000000003,1.0,50.5,5.5,72.0
437,102,90,63.5,2.825,1.0,43.0,5.5,58.0
438,102,120,28.0,2.9379999999999997,1.0,36.0,5.5,22.5
439,102,150,8.0,2.7065,1.0,32.0,5.5,2.5
440,102,180,5.5,2.8834999999999997,0.5,49.0,5.5,0.0
441,104,0,100.0,2.939,1.0,34.0,0.0,100.0
442,104,30,100.0,2.878,1.0,42.5,0.0,100.0
443,104,60,100.0,2.9779999999999998,1.0,51.5,0.0,100.0
444,104,90,100.0,2.9894999999999996,1.0,41.0,0.0,100.0
445,104,120,0.0,3.1755,1.0,37.0,0.0,0.0
446,104,150,0.0,2.9574999999999996,1.0,36.5,0.0,0.0
447,104,180,0.0,3.028,1.0,33.5,0.0,0.0
448,105,0,97.0,2.3274999999999997,1.0,41.5,29.5,67.5
449,105,30,90.5,2.127,1.0,34.5,29.5,61.0
450,105,60,91.5,2.263,1.0,51.5,29.5,62.0
451,105,90,70.5,2.2115,1.0,33.0,29.5,41.0
452,105,120,58.0,2.686,1.0,32.5,29.5,28.5
453,105,150,36.5,2.2875,1.0,48.5,29.5,7.0
454,105,180,29.5,2.735,0.0,39.5,29.5,0.0
455,106,0,99.5,3.653,1.0,51.0,32.5,67.0
456,106,30,98.0,3.8825,1.0,31.5,32.5,65.5
457,106,60,95.0,3.5119999999999996,1.0,54.5,32.5,62.5
458,106,90,70.0,3.6965000000000003,1.0,28.5,32.5,37.5
459,106,120,46.0,3.9225,1.0,37.0,32.5,13.5
460,106,150,40.5,3.6945,1.0,49.5,32.5,8.0
461,106,180,32.5,4.2524999999999995,0.0,33.5,32.5,0.0
462,107,0,76.0,3.0795,1.0,46.0,40.0,36.0
463,107,30,72.0,3.326,1.0,31.0,40.0,32.0
464,107,60,69.0,3.0404999999999998,1.0,32.5,40.0,29.0
465,107,90,65.0,2.8819999999999997,1.0,52.0,40.0,25.0
466,107,120,58.0,3.223,1.0,49.0,40.0,18.0
467,107,150,38.5,3.214,1.0,23.5,40.0,-1.5
468,107,180,40.0,2.995,1.0,43.0,40.0,0.0
469,108,0,100.0,3.0215,1.0,26.5,0.0,100.0
470,108,30,100.0,2.9565,1.0,43.0,0.0,100.0
471,108,60,100.0,3.061,1.0,39.0,0.0,100.0
472,108,90,100.0,3.0555000000000003,1.0,49.0,0.0,100.0
473,108,120,85.5,3.2984999999999998,1.0,56.0,0.0,85.5
474,108,150,0.0,3.4530000000000003,0.0,41.5,0.0,0.0
475,108,180,0.0,3.133,0.0,46.0,0.0,0.0
476,111,0,92.5,3.0164999999999997,1.0,60.5,20.0,72.5
477,111,30,90.5,3.2445000000000004,1.0,45.0,20.0,70.5
478,111,60,82.5,3.032,1.0,32.5,20.0,62.5
479,111,90,69.0,2.9050000000000002,1.0,50.0,20.0,49.0
480,111,120,55.5,3.014,1.0,46.5,20.0,35.5
481,111,150,13.5,3.337,1.0,39.5,20.0,-6.5
482,111,180,20.0,3.0845000000000002,1.0,32.5,20.0,0.0
483,112,0,100.0,2.5495,1.0,42.5,0.0,100.0
484,112,30,100.0,2.8369999999999997,1.0,23.5,0.0,100.0
485,112,60,100.0,2.637,1.0,47.0,0.0,100.0
486,112,90,100.0,2.7984999999999998,1.0,48.5,0.0,100.0
487,112,120,100.0,2.7255000000000003,1.0,41.0,0.0,100.0
488,112,150,0.0,2.5999999999999996,1.0,42.0,0.0,0.0
489,112,180,0.0,2.6675,1.0,35.0,0.0,0.0
490,113,0,99.0,2.6975,1.0,37.0,4.5,94.5
491,113,30,99.0,2.349,1.0,39.0,4.5,94.5
492,113,60,94.5,2.569,1.0,49.0,4.5,90.0
493,113,90,85.0,2.701,1.0,22.5,4.5,80.5
494,113,120,28.0,2.7765000000000004,1.0,55.5,4.5,23.5
495,113,150,2.0,2.902,1.0,44.0,4.5,-2.5
496,113,180,4.5,2.9205,1.0,39.5,4.5,0.0
497,114,0,100.0,2.6980000000000004,1.0,32.5,0.0,100.0
498,114,30,100.0,2.963,1.0,52.0,0.0,100.0
499,114,60,99.0,2.9215,1.0,37.5,0.0,99.0
500,114,90,74.5,3.472,1.0,65.0,0.0,74.5
501,114,120,7.0,3.6239999999999997,1.0,42.5,0.0,7.0
502,114,150,0.0,3.0315000000000003,0.0,33.0,0.0,0.0
503,114,180,0.0,3.3895,1.0,29.5,0.0,0.0
504,115,0,92.5,1.8824999999999998,1.0,41.5,18.0,74.5
505,115,30,89.5,1.758,1.0,49.5,18.0,71.5
506,115,60,77.0,2.1665,1.0,54.0,18.0,59.0
507,115,90,69.5,2.043,1.0,40.0,18.0,51.5
508,115,120,20.5,2.1045,1.0,29.5,18.0,2.5
509,115,150,17.5,2.3369999999999997,1.0,21.5,18.0,-0.5
510,115,180,18.0,2.1165000000000003,1.0,61.0,18.0,0.0
511,117,0,100.0,1.7715,1.0,32.0,0.0,100.0
512,117,30,100.0,1.9365,1.0,38.5,0.0,100.0
513,117,60,91.0,1.8435000000000001,1.0,42.5,0.0,91.0
514,117,90,60.0,2.0389999999999997,1.0,45.5,0.0,60.0
515,117,120,5.5,1.942,1.0,47.0,0.0,5.5
516,117,150,0.5,1.8929999999999998,1.0,47.5,0.0,0.5
517,117,180,0.0,1.9715,1.0,40.0,0.0,0.0
518,118,0,100.0,2.6135,1.0,62.5,12.0,88.0
519,118,30,100.0,2.1135,1.0,42.5,12.0,88.0
520,118,60,85.5,2.183,1.0,21.5,12.0,73.5
521,118,90,68.0,2.2140000000000004,1.0,37.5,12.0,56.0
522,118,120,24.0,2.8385,1.0,46.0,12.0,12.0
523,118,150,12.5,2.4210000000000003,1.0,47.0,12.0,0.5
524,118,180,12.0,3.2969999999999997,1.0,37.5,12.0,0.0
525,121,0,100.0,1.692,1.0,48.0,50.5,49.5
526,121,30,100.0,1.8094999999999999,1.0,10.5,50.5,49.5
527,121,60,95.0,1.754,1.0,35.5,50.5,44.5
528,121,90,77.0,2.143,1.0,44.5,50.5,26.5
529,121,120,67.5,2.283,1.0,48.5,50.5,17.0
530,121,150,52.0,2.873,1.0,42.5,50.5,1.5
531,121,180,50.5,2.473,1.0,50.0,50.5,0.0
532,122,0,91.0,2.0484999999999998,1.0,33.5,27.5,63.5
533,122,30,91.5,2.2805,1.0,44.0,27.5,64.0
534,122,60,89.0,2.176,1.0,37.0,27.5,61.5
535,122,90,86.0,2.2365,1.0,41.5,27.5,58.5
536,122,120,84.0,2.2055,1.0,42.5,27.5,56.5
537,122,150,41.5,2.395,1.0,53.0,27.5,14.0
538,122,180,27.5,2.2725,0.0,40.5,27.5,0.0
539,123,0,100.0,1.702,1.0,40.0,2.0,98.0
540,123,30,100.0,1.725,1.0,60.0,2.0,98.0
541,123,60,97.0,2.0300000000000002,1.0,23.5,2.0,95.0
542,123,90,84.0,1.9075,1.0,35.5,2.0,82.0
543,123,120,40.0,1.7349999999999999,1.0,52.0,2.0,38.0
544,123,150,5.5,2.2809999999999997,1.0,43.5,2.0,3.5
545,123,180,2.0,2.0709999999999997,1.0,28.5,2.0,0.0
546,125,0,100.0,2.9215,1.0,54.0,0.0,100.0
547,125,30,100.0,3.1955,1.0,27.0,0.0,100.0
548,125,60,100.0,3.1835,1.0,45.0,0.0,100.0
549,125,90,99.5,3.9459999999999997,1.0,37.5,0.0,99.5
550,125,120,48.5,4.411,1.0,52.0,0.0,48.5
551,125,150,15.0,3.9945,1.0,51.0,0.0,15.0
552,125,180,0.0,3.9299999999999997,1.0,31.0,0.0,0.0
553,127,0,92.0,3.5949999999999998,1.0,27.5,13.0,79.0
554,127,30,89.0,3.216,1.0,50.5,13.0,76.0
555,127,60,82.5,3.5035,1.0,49.0,13.0,69.5
556,127,90,70.5,3.5265,1.0,22.0,13.0,57.5
557,127,120,61.5,3.7169999999999996,1.0,42.5,13.0,48.5
558,127,150,12.5,3.831,0.5,53.5,13.0,-0.5
559,127,180,13.0,3.586,1.0,43.0,13.0,0.0
560,128,0,100.0,3.5685000000000002,1.0,40.5,15.5,84.5
561,128,30,100.0,4.143,1.0,34.5,15.5,84.5
562,128,60,100.0,4.136,1.0,45.5,15.5,84.5
563,128,90,81.0,3.5374999999999996,1.0,52.5,15.5,65.5
564,128,120,18.0,4.449999999999999,1.0,46.5,15.5,2.5
565,128,150,7.5,4.3075,1.0,26.5,15.5,-8.0
566,128,180,15.5,4.916,0.0,48.0,15.5,0.0
567,129,0,72.5,3.2895,1.0,51.5,36.5,36.0
568,129,30,71.5,3.161,1.0,51.5,36.5,35.0
569,129,60,69.0,3.249,1.0,57.5,36.5,32.5
570,129,90,60.0,3.202,1.0,37.5,36.5,23.5
571,129,120,46.0,3.5915,1.0,28.0,36.5,9.5
572,129,150,39.5,3.6365,1.0,25.5,36.5,3.0
573,129,180,36.5,3.624,1.0,36.0,36.5,0.0
574,130,0,96.0,5.0235,1.0,42.5,46.0,50.0
575,130,30,91.0,5.0065,1.0,50.5,46.0,45.0
576,130,60,91.0,5.18,1.0,56.0,46.0,45.0
577,130,90,82.5,4.452500000000001,1.0,41.5,46.0,36.5
578,130,120,74.5,4.2465,1.0,48.0,46.0,28.5
579,130,150,23.5,4.688,1.0,32.5,46.0,-22.5
580,130,180,46.0,4.971,1.0,22.5,46.0,0.0
581,133,0,75.0,2.769,1.0,38.0,28.0,47.0
582,133,30,69.5,2.777,1.0,23.5,28.0,41.5
583,133,60,62.0,2.7325,1.0,55.5,28.0,34.0
584,133,90,57.0,2.7815,1.0,53.5,28.0,29.0
585,133,120,38.5,3.026,1.0,46.5,28.0,10.5
586,133,150,27.0,2.912,1.0,37.5,28.0,-1.0
587,133,180,28.0,2.8105,1.0,30.0,28.0,0.0
588,134,0,100.0,3.284,1.0,33.5,1.0,99.0
589,134,30,100.0,3.46,1.0,42.0,1.0,99.0
590,134,60,100.0,3.916,1.0,26.5,1.0,99.0
591,134,90,92.0,5.701499999999999,1.0,43.0,1.0,91.0
592,134,120,9.0,4.7965,1.0,66.5,1.0,8.0
593,134,150,0.0,4.3555,1.0,47.0,1.0,-1.0
594,134,180,1.0,5.0705,1.0,32.5,1.0,0.0
595,135,0,92.5,2.705,1.0,55.0,25.0,67.5
596,135,30,92.0,3.2990000000000004,1.0,49.0,25.0,67.0
597,135,60,89.0,3.4865000000000004,1.0,48.0,25.0,64.0
598,135,90,73.5,3.3165,1.0,30.0,25.0,48.5
599,135,120,32.5,3.1944999999999997,1.0,38.0,25.0,7.5
600,135,150,9.0,3.705,0.5,45.0,25.0,-16.0
601,135,180,25.0,3.2119999999999997,0.5,32.5,25.0,0.0
602,137,0,87.0,4.641,1.0,24.5,35.0,52.0
603,137,30,82.5,4.582000000000001,1.0,56.0,35.0,47.5
604,137,60,84.0,4.4965,1.0,51.0,35.0,49.0
605,137,90,75.5,4.644,1.0,39.5,35.0,40.5
606,137,120,38.5,4.197,1.0,38.0,35.0,3.5
607,137,150,45.0,4.1015,1.0,62.5,35.0,10.0
608,137,180,35.0,4.7565,1.0,30.5,35.0,0.0
609,138,0,88.5,3.048,1.0,32.5,8.5,80.0
610,138,30,90.0,2.856,1.0,63.0,8.5,81.5
611,138,60,83.0,2.8925,1.0,33.5,8.5,74.5
612,138,90,67.5,2.864,1.0,43.0,8.5,59.0
613,138,120,23.0,3.0525,1.0,39.0,8.5,14.5
614,138,150,9.0,2.9604999999999997,1.0,35.5,8.5,0.5
615,138,180,8.5,3.2155,0.5,53.0,8.5,0.0
616,143,0,78.5,2.1260000000000003,1.0,29.5,37.0,41.5
617,143,30,77.5,2.464,1.0,43.0,37.0,40.5
618,143,60,65.0,2.2575000000000003,1.0,55.0,37.0,28.0
619,143,90,65.5,2.2345,1.0,40.0,37.0,28.5
620,143,120,52.5,2.5949999999999998,1.0,54.5,37.0,15.5
621,143,150,24.5,3.088,1.0,29.5,37.0,-12.5
622,143,180,37.0,3.0925000000000002,1.0,51.5,37.0,0.0
623,144,0,100.0,3.181,1.0,55.5,0.0,100.0
624,144,30,100.0,3.225,1.0,47.0,0.0,100.0
625,144,60,100.0,3.206,1.0,46.5,0.0,100.0
626,144,90,100.0,3.21,1.0,45.0,0.0,100.0
627,144,120,50.0,3.798,1.0,27.0,0.0,50.0
628,144,150,0.0,3.697,1.0,48.5,0.0,0.0
629,144,180,0.0,3.69,1.0,37.0,0.0,0.0
630,145,0,98.0,4.1965,1.0,48.5,26.5,71.5
631,145,30,91.5,4.2135,1.0,46.5,26.5,65.0
632,145,60,83.5,4.4045000000000005,1.0,41.5,26.5,57.0
633,145,90,53.5,4.6785,1.0,43.0,26.5,27.0
634,145,120,32.5,3.8665000000000003,0.5,45.5,26.5,6.0
635,145,150,16.0,3.9555,0.0,32.5,26.5,-10.5
636,145,180,26.5,3.8245,1.0,23.0,26.5,0.0
637,146,0,91.5,2.436,1.0,21.5,56.5,35.0
638,146,30,88.5,2.2505,1.0,50.5,56.5,32.0
639,146,60,82.0,2.5155,1.0,50.5,56.5,25.5
640,146,90,60.5,2.509,1.0,27.5,56.5,4.0
641,146,120,58.0,2.5780000000000003,1.0,39.5,56.5,1.5
642,146,150,54.0,2.615,1.0,50.5,56.5,-2.5
643,146,180,56.5,2.3,1.0,44.0,56.5,0.0
644,148,0,100.0,1.7389999999999999,1.0,52.5,0.0,100.0
645,148,30,100.0,1.5405,1.0,43.5,0.0,100.0
646,148,60,92.5,1.607,1.0,35.5,0.0,92.5
647,148,90,84.5,1.581,1.0,52.0,0.0,84.5
648,148,120,67.0,1.8295,1.0,34.0,0.0,67.0
649,148,150,43.0,1.8559999999999999,1.0,43.5,0.0,43.0
650,148,180,0.0,1.9535,0.5,38.0,0.0,0.0
651,149,0,90.0,4.26,1.0,38.0,49.5,40.5
652,149,30,92.5,3.899,1.0,39.0,49.5,43.0
653,149,60,92.5,4.0845,1.0,23.5,49.5,43.0
654,149,90,94.0,4.101,1.0,42.5,49.5,44.5
655,149,120,91.0,4.0615,1.0,51.0,49.5,41.5
656,149,150,13.0,4.6585,1.0,35.5,49.5,-36.5
657,149,180,49.5,4.1795,1.0,48.5,49.5,0.0
658,150,0,92.0,4.4335,1.0,45.0,40.0,52.0
659,150,30,91.5,3.8295,1.0,44.0,40.0,51.5
660,150,60,75.5,4.0865,1.0,41.0,40.0,35.5
661,150,90,68.0,4.2145,1.0,38.5,40.0,28.0
662,150,120,60.0,3.709,1.0,55.5,40.0,20.0
663,150,150,21.0,4.9045000000000005,0.5,44.0,40.0,-19.0
664,150,180,40.0,4.1884999999999994,0.5,31.0,40.0,0.0
665,151,0,98.5,2.1885000000000003,1.0,35.5,24.5,74.0
666,151,30,79.0,2.3055000000000003,1.0,63.5,24.5,54.5
667,151,60,74.5,2.6455,1.0,34.0,24.5,50.0
668,151,90,65.0,2.1965000000000003,1.0,50.5,24.5,40.5
669,151,120,49.5,2.5255,1.0,30.5,24.5,25.0
670,151,150,22.5,2.633,1.0,39.0,24.5,-2.0
671,151,180,24.5,2.37,1.0,38.0,24.5,0.0
672,152,0,100.0,2.2165,1.0,41.0,28.5,71.5
673,152,30,100.0,2.1239999999999997,1.0,45.5,28.5,71.5
674,152,60,100.0,2.1765,1.0,42.0,28.5,71.5
675,152,90,95.0,2.0785,1.0,66.5,28.5,66.5
676,152,120,70.0,1.993,1.0,31.0,28.5,41.5
677,152,150,29.0,2.3585000000000003,1.0,49.0,28.5,0.5
678,152,180,28.5,2.6639999999999997,1.0,26.5,28.5,0.0
679,154,0,96.5,3.724,1.0,47.0,37.0,59.5
680,154,30,94.0,3.741,1.0,23.5,37.0,57.0
681,154,60,93.0,3.3354999999999997,1.0,37.0,37.0,56.0
682,154,90,85.5,3.9450000000000003,1.0,53.5,37.0,48.5
683,154,120,56.0,3.919,1.0,31.5,37.0,19.0
684,154,150,38.0,3.681,1.0,43.0,37.0,1.0
685,154,180,37.0,4.298500000000001,1.0,61.0,37.0,0.0
686,158,0,100.0,2.6695,1.0,51.5,23.5,76.5
687,158,30,100.0,2.6799999999999997,1.0,55.5,23.5,76.5
688,158,60,100.0,2.6784999999999997,1.0,49.5,23.5,76.5
689,158,90,100.0,3.0795,1.0,47.0,23.5,76.5
690,158,120,49.5,2.967,1.0,49.0,23.5,26.0
691,158,150,45.0,3.3114999999999997,1.0,33.0,23.5,21.5
692,158,180,23.5,3.0645,0.0,26.5,23.5,0.0
693,159,0,100.0,2.047,1.0,40.5,10.5,89.5
694,159,30,100.0,2.0035,1.0,40.0,10.5,89.5
695,159,60,93.0,1.7915,1.0,49.0,10.5,82.5
696,159,90,74.5,2.075,1.0,25.0,10.5,64.0
697,159,120,40.0,2.0945,1.0,46.5,10.5,29.5
698,159,150,4.5,2.0515,1.0,39.5,10.5,-6.0
699,159,180,10.5,1.891,1.0,45.0,10.5,0.0
700,160,0,100.0,3.5755,1.0,34.5,0.0,100.0
701,160,30,100.0,3.315,1.0,51.0,0.0,100.0
702,160,60,100.0,3.669,1.0,50.5,0.0,100.0
703,160,90,100.0,4.099,1.0,33.5,0.0,100.0
704,160,120,100.0,4.4725,1.0,19.5,0.0,100.0
705,160,150,0.0,4.439,1.0,31.0,0.0,0.0
706,160,180,0.0,4.1114999999999995,1.0,53.0,0.0,0.0
707,161,0,83.0,3.0025,1.0,29.5,9.0,74.0
708,161,30,78.5,2.793,1.0,27.0,9.0,69.5
709,161,60,73.5,2.759,1.0,49.5,9.0,64.5
710,161,90,55.0,2.8354999999999997,1.0,46.0,9.0,46.0
711,161,120,32.5,3.371,1.0,53.5,9.0,23.5
712,161,150,5.5,2.896,0.5,33.0,9.0,-3.5
713,161,180,9.0,3.1795,1.0,48.5,9.0,0.0
714,162,0,96.5,3.2845,1.0,49.5,7.0,89.5
715,162,30,94.0,2.9234999999999998,1.0,49.5,7.0,87.0
716,162,60,83.5,3.1935000000000002,1.0,34.0,7.0,76.5
717,162,90,69.0,3.158,1.0,54.5,7.0,62.0
718,162,120,33.5,4.162,1.0,35.5,7.0,26.5
719,162,150,11.5,3.4005,0.5,39.5,7.0,4.5
720,162,180,7.0,3.5300000000000002,1.0,39.5,7.0,0.0
721,163,0,79.0,2.6005000000000003,1.0,45.0,21.0,58.0
722,163,30,76.0,2.4105,1.0,41.0,21.0,55.0
723,163,60,71.0,2.6905,1.0,31.0,21.0,50.0
724,163,90,67.0,2.378,1.0,45.0,21.0,46.0
725,163,120,42.0,2.228,1.0,49.0,21.0,21.0
726,163,150,18.0,2.7255000000000003,1.0,29.5,21.0,-3.0
727,163,180,21.0,2.3585000000000003,1.0,49.5,21.0,0.0
728,165,0,88.5,2.518,1.0,36.0,39.5,49.0
729,165,30,91.5,2.7664999999999997,1.0,37.5,39.5,52.0
730,165,60,82.5,2.717,1.0,24.0,39.5,43.0
731,165,90,56.0,2.5915,1.0,43.0,39.5,16.5
732,165,120,37.0,2.734,1.0,55.5,39.5,-2.5
733,165,150,38.0,2.8739999999999997,1.0,32.5,39.5,-1.5
734,165,180,39.5,2.886,1.0,56.0,39.5,0.0
735,166,0,94.0,1.7175,1.0,50.0,21.0,73.0
736,166,30,91.5,1.677,1.0,32.0,21.0,70.5
737,166,60,78.5,1.7995,1.0,35.0,21.0,57.5
738,166,90,60.0,2.265,1.0,31.5,21.0,39.0
739,166,120,46.5,1.766,1.0,57.5,21.0,25.5
740,166,150,15.0,2.1565,1.0,40.5,21.0,-6.0
741,166,180,21.0,2.3360000000000003,1.0,40.0,21.0,0.0
742,167,0,100.0,2.2785,1.0,49.0,60.5,39.5
743,167,30,100.0,2.354,1.0,50.0,60.5,39.5
744,167,60,100.0,2.362,1.0,31.0,60.5,39.5
745,167,90,98.0,2.7695,1.0,33.0,60.5,37.5
746,167,120,70.0,2.641,1.0,41.0,60.5,9.5
747,167,150,28.5,3.343,1.0,53.0,60.5,-32.0
748,167,180,60.5,3.173,1.0,36.5,60.5,0.0
749,170,0,95.5,2.6895,1.0,48.0,74.5,21.0
750,170,30,93.0,2.4265,1.0,44.5,74.5,18.5
751,170,60,94.5,2.2960000000000003,1.0,52.5,74.5,20.0
752,170,90,91.5,2.2554999999999996,1.0,41.5,74.5,17.0
753,170,120,91.5,2.5915,1.0,36.0,74.5,17.0
754,170,150,50.5,2.593,1.0,40.5,74.5,-24.0
755,170,180,74.5,2.6665,1.0,30.5,74.5,0.0
756,172,0,90.5,2.266,1.0,64.0,13.5,77.0
757,172,30,96.5,2.4255,1.0,30.5,13.5,83.0
758,172,60,85.5,2.3575,1.0,28.0,13.5,72.0
759,172,90,53.5,2.636,1.0,40.0,13.5,40.0
760,172,120,20.0,2.871,1.0,27.0,13.5,6.5
761,172,150,16.0,2.3395,1.0,51.0,13.5,2.5
762,172,180,13.5,2.465,1.0,56.5,13.5,0.0
763,173,0,90.5,2.7485,1.0,52.5,9.5,81.0
764,173,30,87.5,2.806,1.0,39.5,9.5,78.0
765,173,60,80.5,2.7009999999999996,1.0,36.5,9.5,71.0
766,173,90,75.5,2.7115,1.0,38.0,9.5,66.0
767,173,120,37.5,3.393,1.0,37.0,9.5,28.0
768,173,150,17.0,3.032,0.0,27.5,9.5,7.5
769,173,180,9.5,2.9595,1.0,50.5,9.5,0.0
770,175,0,88.0,2.7965,1.0,21.5,24.5,63.5
771,175,30,88.0,2.9924999999999997,1.0,31.0,24.5,63.5
772,175,60,89.0,2.9875,1.0,56.5,24.5,64.5
773,175,90,94.0,3.2025,1.0,45.0,24.5,69.5
774,175,120,85.5,3.4939999999999998,1.0,47.5,24.5,61.0
775,175,150,14.0,3.4965,1.0,32.5,24.5,-10.5
776,175,180,24.5,3.4955,1.0,55.5,24.5,0.0
777,176,0,95.5,2.414,1.0,38.5,21.0,74.5
778,176,30,95.0,2.424,1.0,36.5,21.0,74.0
779,176,60,96.0,2.4290000000000003,1.0,44.0,21.0,75.0
780,176,90,95.5,2.4585,1.0,38.5,21.0,74.5
781,176,120,87.5,2.6045,1.0,50.0,21.0,66.5
782,176,150,12.5,2.7809999999999997,1.0,45.0,21.0,-8.5
783,176,180,21.0,2.957,0.5,44.0,21.0,0.0
784,177,0,98.5,3.2295,1.0,30.0,7.0,91.5
785,177,30,96.0,3.1814999999999998,1.0,46.0,7.0,89.0
786,177,60,90.0,3.074,1.0,41.5,7.0,83.0
787,177,90,77.0,3.766,1.0,48.5,7.0,70.0
788,177,120,33.0,3.7860000000000005,1.0,43.0,7.0,26.0
789,177,150,1.0,3.0435,1.0,42.5,7.0,-6.0
790,177,180,7.0,3.5140000000000002,1.0,42.5,7.0,0.0
791,178,0,97.0,2.785,1.0,36.5,7.5,89.5
792,178,30,92.5,2.6565000000000003,1.0,43.5,7.5,85.0
793,178,60,83.5,2.5335,1.0,29.0,7.5,76.0
794,178,90,72.0,2.956,1.0,40.5,7.5,64.5
795,178,120,13.0,2.8495,1.0,36.0,7.5,5.5
796,178,150,4.5,3.1980000000000004,1.0,52.5,7.5,-3.0
797,178,180,7.5,3.0925000000000002,1.0,44.0,7.5,0.0
798,179,0,92.0,2.9975,1.0,36.5,25.0,67.0
799,179,30,91.0,3.2625,1.0,51.5,25.0,66.0
800,179,60,87.5,3.1795,1.0,45.5,25.0,62.5
801,179,90,76.5,3.2655,1.0,42.0,25.0,51.5
802,179,120,54.5,3.0745,1.0,36.0,25.0,29.5
803,179,150,29.0,3.214,1.0,39.0,25.0,4.0
804,179,180,25.0,3.7705,1.0,43.0,25.0,0.0
805,180,0,100.0,3.0435,1.0,35.0,11.5,88.5
806,180,30,100.0,3.347,1.0,20.0,11.5,88.5
807,180,60,100.0,3.2365000000000004,1.0,31.5,11.5,88.5
808,180,90,82.0,3.575,1.0,51.5,11.5,70.5
809,180,120,31.5,3.8585000000000003,1.0,43.5,11.5,20.0
810,180,150,18.0,4.007,1.0,57.0,11.5,6.5
811,180,180,11.5,3.8795,1.0,52.0,11.5,0.0
812,181,0,94.5,2.237,1.0,51.0,20.0,74.5
813,181,30,94.0,2.2495,1.0,51.0,20.0,74.0
814,181,60,84.5,2.2895000000000003,1.0,29.0,20.0,64.5
815,181,90,72.5,2.3899999999999997,1.0,23.0,20.0,52.5
816,181,120,54.5,2.729,1.0,37.0,20.0,34.5
817,181,150,7.5,2.2199999999999998,1.0,55.5,20.0,-12.5
818,181,180,20.0,2.2640000000000002,1.0,48.5,20.0,0.0
819,182,0,100.0,3.253,1.0,42.0,0.0,100.0
820,182,30,100.0,3.4735,1.0,48.0,0.0,100.0
821,182,60,100.0,3.552,1.0,26.5,0.0,100.0
822,182,90,98.0,3.66,1.0,41.0,0.0,98.0
823,182,120,59.0,3.6795,1.0,34.0,0.0,59.0
824,182,150,0.0,3.7415000000000003,1.0,54.5,0.0,0.0
825,182,180,0.0,3.6565,0.5,51.5,0.0,0.0
826,183,0,95.0,2.3449999999999998,1.0,38.0,55.5,39.5
827,183,30,95.5,2.438,1.0,35.5,55.5,40.0
828,183,60,91.5,2.269,1.0,55.5,55.5,36.0
829,183,90,87.5,2.5515,1.0,44.0,55.5,32.0
830,183,120,62.5,2.214,1.0,40.5,55.5,7.0
831,183,150,46.0,2.62,0.0,53.0,55.5,-9.5
832,183,180,55.5,2.44,0.5,28.5,55.5,0.0
833,184,0,100.0,3.5555000000000003,1.0,43.0,13.0,87.0
834,184,30,100.0,3.3235,1.0,46.0,13.0,87.0
835,184,60,100.0,3.577,1.0,49.5,13.0,87.0
836,184,90,98.5,3.4055,1.0,24.5,13.0,85.5
837,184,120,83.0,3.9015000000000004,1.0,29.0,13.0,70.0
838,184,150,13.0,4.616,1.0,61.5,13.0,0.0
839,184,180,13.0,3.5435,0.5,30.5,13.0,0.0
840,185,0,80.0,2.872,1.0,40.0,45.0,35.0
841,185,30,91.0,2.6390000000000002,1.0,33.0,45.0,46.0
842,185,60,81.5,2.6875,1.0,55.0,45.0,36.5
843,185,90,69.5,2.8705,1.0,36.5,45.0,24.5
844,185,120,62.5,2.8535,1.0,50.0,45.0,17.5
845,185,150,32.0,2.966,1.0,54.5,45.0,-13.0
846,185,180,45.0,3.3360000000000003,0.5,23.5,45.0,0.0
847,186,0,89.0,2.5915,1.0,29.5,43.0,46.0
848,186,30,86.0,2.634,1.0,47.5,43.0,43.0
849,186,60,80.0,2.827,1.0,40.0,43.0,37.0
850,186,90,76.5,3.0315000000000003,1.0,46.0,43.0,33.5
851,186,120,64.5,2.827,1.0,32.5,43.0,21.5
852,186,150,41.5,3.1355,1.0,41.0,43.0,-1.5
853,186,180,43.0,3.199,1.0,55.5,43.0,0.0
854,189,0,100.0,1.9755,1.0,46.0,21.5,78.5
855,189,30,100.0,1.891,1.0,24.5,21.5,78.5
856,189,60,94.0,1.7725,1.0,41.5,21.5,72.5
857,189,90,83.5,1.592,1.0,42.0,21.5,62.0
858,189,120,65.5,1.985,1.0,41.5,21.5,44.0
859,189,150,50.0,2.135,1.0,32.0,21.5,28.5
860,189,180,21.5,2.0214999999999996,1.0,44.5,21.5,0.0
861,191,0,100.0,1.828,1.0,58.0,5.5,94.5
862,191,30,100.0,2.2275,1.0,37.5,5.5,94.5
863,191,60,100.0,1.965,1.0,36.5,5.5,94.5
864,191,90,82.5,2.2355,1.0,22.5,5.5,77.0
865,191,120,19.0,2.0700000000000003,1.0,54.0,5.5,13.5
866,191,150,6.0,2.441,1.0,40.0,5.5,0.5
867,191,180,5.5,2.0545,1.0,44.0,5.5,0.0
868,193,0,77.0,1.7999999999999998,1.0,45.5,70.5,6.5
869,193,30,78.5,1.8210000000000002,1.0,41.0,70.5,8.0
870,193,60,79.5,1.725,1.0,58.0,70.5,9.0
871,193,90,77.0,1.9949999999999999,1.0,52.0,70.5,6.5
872,193,120,77.0,1.766,1.0,42.5,70.5,6.5
873,193,150,75.0,2.3055,1.0,32.0,70.5,4.5
874,193,180,70.5,2.1265,1.0,33.0,70.5,0.0
875,194,0,88.0,2.923,1.0,46.5,37.5,50.5
876,194,30,88.0,3.252,1.0,43.0,37.5,50.5
877,194,60,86.0,2.935,1.0,51.5,37.5,48.5
878,194,90,80.0,3.124,1.0,19.5,37.5,42.5
879,194,120,63.0,3.6635,1.0,35.0,37.5,25.5
880,194,150,21.0,3.0145,1.0,40.0,37.5,-16.5
881,194,180,37.5,3.2485,1.0,43.5,37.5,0.0
882,195,0,100.0,2.9995000000000003,1.0,42.5,12.0,88.0
883,195,30,100.0,3.6715,1.0,39.5,12.0,88.0
884,195,60,100.0,3.1345,1.0,39.0,12.0,88.0
885,195,90,100.0,3.8385,1.0,45.5,12.0,88.0
886,195,120,74.0,4.2425,1.0,49.0,12.0,62.0
887,195,150,44.5,3.8499999999999996,1.0,52.0,12.0,32.5
888,195,180,12.0,4.474,1.0,23.5,12.0,0.0
889,197,0,96.5,1.8450000000000002,1.0,38.5,9.0,87.5
890,197,30,95.0,1.6675,1.0,53.5,9.0,86.0
891,197,60,95.0,1.752,1.0,33.5,9.0,86.0
892,197,90,95.0,1.611,1.0,42.5,9.0,86.0
893,197,120,48.5,2.0055,1.0,42.0,9.0,39.5
894,197,150,10.5,1.87,1.0,48.0,9.0,1.5
895,197,180,9.0,2.0869999999999997,0.5,25.0,9.0,0.0
896,198,0,100.0,2.2569999999999997,1.0,42.5,13.5,86.5
897,198,30,100.0,2.23,1.0,37.5,13.5,86.5
898,198,60,100.0,2.6855,1.0,31.5,13.5,86.5
899,198,90,90.0,2.282,1.0,49.5,13.5,76.5
900,198,120,58.5,2.401,1.0,48.0,13.5,45.0
901,198,150,1.0,2.84,0.5,47.5,13.5,-12.5
902,198,180,13.5,2.5084999999999997,0.0,36.0,13.5,0.0
903,201,0,100.0,3.4515000000000002,1.0,29.0,34.5,65.5
904,201,30,100.0,3.2024999999999997,1.0,40.0,34.5,65.5
905,201,60,100.0,3.192,1.0,60.5,34.5,65.5
906,201,90,82.5,3.3465,1.0,43.5,34.5,48.0
907,201,120,70.5,3.665,1.0,44.5,34.5,36.0
908,201,150,14.5,4.0605,1.0,42.0,34.5,-20.0
909,201,180,34.5,3.8725,1.0,30.5,34.5,0.0
910,202,0,88.0,2.9095,1.0,28.5,27.0,61.0
911,202,30,91.0,2.6475,1.0,39.0,27.0,64.0
912,202,60,75.5,2.4795,1.0,57.0,27.0,48.5
913,202,90,69.0,3.0365,1.0,41.5,27.0,42.0
914,202,120,58.0,2.9669999999999996,1.0,38.0,27.0,31.0
915,202,150,4.0,3.151,1.0,32.5,27.0,-23.0
916,202,180,27.0,2.936,0.5,38.5,27.0,0.0
917,203,0,99.5,3.2655000000000003,1.0,41.5,38.5,61.0
918,203,30,100.0,3.3520000000000003,1.0,40.5,38.5,61.5
919,203,60,96.0,3.261,1.0,60.5,38.5,57.5
920,203,90,75.0,3.1310000000000002,1.0,37.0,38.5,36.5
921,203,120,56.0,3.48,1.0,24.5,38.5,17.5
922,203,150,39.5,3.5395,1.0,40.5,38.5,1.0
923,203,180,38.5,3.7045,1.0,44.0,38.5,0.0
924,205,0,95.0,2.7535,1.0,47.5,11.0,84.0
925,205,30,88.0,2.8345000000000002,1.0,28.0,11.0,77.0
926,205,60,78.5,2.7025,1.0,30.5,11.0,67.5
927,205,90,68.5,2.6425,1.0,43.0,11.0,57.5
928,205,120,26.0,2.753,1.0,51.0,11.0,15.0
929,205,150,13.5,2.524,1.0,56.0,11.0,2.5
930,205,180,11.0,2.5620000000000003,0.0,40.5,11.0,0.0
931,206,0,98.0,2.7984999999999998,1.0,40.0,76.0,22.0
932,206,30,98.0,3.1155,1.0,45.5,76.0,22.0
933,206,60,97.5,3.125,1.0,30.0,76.0,21.5
934,206,90,97.0,2.67,1.0,38.0,76.0,21.0
935,206,120,93.5,2.9615,1.0,40.5,76.0,17.5
936,206,150,67.5,3.096,1.0,37.5,76.0,-8.5
937,206,180,76.0,2.8185000000000002,0.5,55.5,76.0,0.0
938,208,0,86.5,3.694,1.0,41.0,16.5,70.0
939,208,30,94.0,3.5705,1.0,20.5,16.5,77.5
940,208,60,83.5,3.749,1.0,38.0,16.5,67.0
941,208,90,74.0,3.7889999999999997,1.0,53.0,16.5,57.5
942,208,120,52.5,3.6239999999999997,1.0,46.5,16.5,36.0
943,208,150,13.5,4.1395,1.0,31.0,16.5,-3.0
944,208,180,16.5,4.4350000000000005,0.5,51.5,16.5,0.0
945,209,0,91.0,1.75,1.0,32.5,0.5,90.5
946,209,30,90.5,1.6800000000000002,1.0,24.0,0.5,90.0
947,209,60,78.5,1.6975,1.0,47.5,0.5,78.0
948,209,90,64.5,1.826,1.0,53.0,0.5,64.0
949,209,120,14.5,1.625,1.0,48.0,0.5,14.0
950,209,150,0.0,1.505,1.0,46.5,0.5,-0.5
951,209,180,0.5,1.5535,1.0,44.5,0.5,0.0
952,211,0,87.5,2.4045,1.0,42.0,45.5,42.0
953,211,30,88.0,1.9234999999999998,1.0,45.5,45.5,42.5
954,211,60,90.0,2.9210000000000003,1.0,49.0,45.5,44.5
955,211,90,81.5,2.8810000000000002,1.0,39.5,45.5,36.0
956,211,120,68.0,3.8855,1.0,41.0,45.5,22.5
957,211,150,58.0,3.9475,1.0,28.5,45.5,12.5
958,211,180,45.5,3.253,0.0,45.0,45.5,0.0
959,212,0,100.0,2.5665,1.0,39.0,19.0,81.0
960,212,30,88.5,2.4585,1.0,43.0,19.0,69.5
961,212,60,74.0,2.3665000000000003,1.0,33.0,19.0,55.0
962,212,90,63.5,3.0265,1.0,56.5,19.0,44.5
963,212,120,36.0,3.4669999999999996,1.0,40.5,19.0,17.0
964,212,150,19.5,3.4645,1.0,42.5,19.0,0.5
965,212,180,19.0,3.8695000000000004,1.0,41.0,19.0,0.0
966,213,0,97.0,3.9985,1.0,31.5,35.0,62.0
967,213,30,96.5,3.9365,1.0,51.0,35.0,61.5
968,213,60,93.5,3.6035,1.0,46.5,35.0,58.5
969,213,90,75.0,3.556,1.0,31.5,35.0,40.0
970,213,120,40.0,3.693,1.0,52.5,35.0,5.0
971,213,150,34.5,4.1185,1.0,49.5,35.0,-0.5
972,213,180,35.0,3.967,0.5,24.0,35.0,0.0
973,215,0,85.0,3.5555,1.0,40.5,28.0,57.0
974,215,30,83.0,3.507,1.0,31.5,28.0,55.0
975,215,60,85.0,3.477,1.0,49.5,28.0,57.0
976,215,90,78.5,3.3834999999999997,1.0,54.0,28.0,50.5
977,215,120,33.0,4.0825,1.0,30.0,28.0,5.0
978,215,150,23.5,3.365,1.0,42.0,28.0,-4.5
979,215,180,28.0,3.6985,0.0,46.5,28.0,0.0
980,216,0,67.5,3.3925,1.0,36.0,37.0,30.5
981,216,30,71.0,2.791,1.0,35.0,37.0,34.0
982,216,60,65.0,2.8455,1.0,39.5,37.0,28.0
983,216,90,63.5,2.7880000000000003,1.0,32.0,37.0,26.5
984,216,120,58.0,2.8855,1.0,44.5,37.0,21.0
985,216,150,34.5,3.02,1.0,39.0,37.0,-2.5
986,216,180,37.0,3.057,1.0,56.5,37.0,0.0
987,217,0,100.0,3.084,1.0,47.5,100.0,0.0
988,217,30,100.0,3.0415,1.0,52.5,100.0,0.0
989,217,60,100.0,3.0195,1.0,19.0,100.0,0.0
990,217,90,100.0,2.9989999999999997,1.0,56.5,100.0,0.0
991,217,120,100.0,3.0265,1.0,48.5,100.0,0.0
992,217,150,49.5,3.488,1.0,41.5,100.0,-50.5
993,217,180,100.0,3.2365000000000004,1.0,28.5,100.0,0.0
994,218,0,80.0,2.223,1.0,35.5,53.0,27.0
995,218,30,79.0,2.6375,1.0,50.0,53.0,26.0
996,218,60,75.0,2.7215,1.0,44.5,53.0,22.0
997,218,90,62.0,3.088,1.0,38.5,53.0,9.0
998,218,120,49.5,2.779,1.0,60.0,53.0,-3.5
999,218,150,41.5,3.1695,0.0,23.0,53.0,-11.5
1000,218,180,53.0,2.9855,1.0,58.5,53.0,0.0
1001,219,0,100.0,2.0125,1.0,47.5,0.0,100.0
1002,219,30,100.0,1.956,1.0,45.5,0.0,100.0
1003,219,60,100.0,2.0835,1.0,40.0,0.0,100.0
1004,219,90,100.0,2.2185,1.0,45.5,0.0,100.0
1005,219,120,0.0,2.215,1.0,33.5,0.0,0.0
1006,219,150,0.0,2.4985,0.0,36.5,0.0,0.0
1007,219,180,0.0,2.4105,0.5,54.0,0.0,0.0
1008,220,0,98.0,3.1825,1.0,52.0,13.0,85.0
1009,220,30,98.0,3.118,1.0,52.5,13.0,85.0
1010,220,60,96.0,2.6254999999999997,1.0,37.0,13.0,83.0
1011,220,90,95.0,3.457,1.0,52.0,13.0,82.0
1012,220,120,80.0,3.36,1.0,34.0,13.0,67.0
1013,220,150,10.0,3.364,1.0,39.0,13.0,-3.0
1014,220,180,13.0,4.1815,1.0,39.0,13.0,0.0
1015,221,0,92.0,2.5435,1.0,52.5,47.0,45.0
1016,221,30,86.5,2.542,1.0,32.5,47.0,39.5
1017,221,60,88.5,2.417,1.0,60.0,47.0,41.5
1018,221,90,71.5,2.7155,1.0,42.0,47.0,24.5
1019,221,120,49.5,2.3689999999999998,1.0,38.0,47.0,2.5
1020,221,150,43.5,2.9234999999999998,1.0,29.5,47.0,-3.5
1021,221,180,47.0,3.2089999999999996,1.0,30.5,47.0,0.0
1022,222,0,98.0,1.9905,1.0,49.5,18.0,80.0
1023,222,30,99.0,2.3485,1.0,32.5,18.0,81.0
1024,222,60,93.0,2.1355,1.0,48.5,18.0,75.0
1025,222,90,82.5,2.0425,1.0,23.5,18.0,64.5
1026,222,120,39.5,2.5575,1.0,49.5,18.0,21.5
1027,222,150,25.5,2.2695,1.0,37.5,18.0,7.5
1028,222,180,18.0,2.253,0.0,48.5,18.0,0.0
1029,223,0,100.0,2.8935,1.0,45.5,9.5,90.5
1030,223,30,100.0,2.7560000000000002,1.0,47.0,9.5,90.5
1031,223,60,95.0,2.8015,1.0,39.0,9.5,85.5
1032,223,90,75.0,2.927,1.0,56.5,9.5,65.5
1033,223,120,51.5,3.3325,1.0,20.5,9.5,42.0
1034,223,150,14.5,3.1014999999999997,1.0,49.5,9.5,5.0
1035,223,180,9.5,3.7705,1.0,23.0,9.5,0.0
1036,224,0,100.0,2.958,1.0,46.0,0.0,100.0
1037,224,30,100.0,2.8280000000000003,1.0,34.5,0.0,100.0
1038,224,60,100.0,2.927,1.0,33.5,0.0,100.0
1039,224,90,100.0,3.3810000000000002,1.0,47.0,0.0,100.0
1040,224,120,0.0,3.4175,1.0,40.0,0.0,0.0
1041,224,150,0.0,3.885,0.0,46.5,0.0,0.0
1042,224,180,0.0,3.5395,1.0,46.0,0.0,0.0
1043,225,0,98.0,3.4779999999999998,1.0,35.0,26.0,72.0
1044,225,30,91.0,3.466,1.0,53.5,26.0,65.0
1045,225,60,91.5,3.6689999999999996,1.0,53.0,26.0,65.5
1046,225,90,77.0,3.3209999999999997,1.0,40.5,26.0,51.0
1047,225,120,43.0,3.5155000000000003,1.0,37.0,26.0,17.0
1048,225,150,27.0,3.8475,0.0,28.5,26.0,1.0
1049,225,180,26.0,3.7535,1.0,32.0,26.0,0.0
1050,226,0,100.0,3.4385000000000003,1.0,40.5,23.0,77.0
1051,226,30,100.0,3.6355,1.0,19.5,23.0,77.0
1052,226,60,100.0,4.024,1.0,37.5,23.0,77.0
1053,226,90,89.0,4.0935,1.0,45.0,23.0,66.0
1054,226,120,59.5,4.284,1.0,54.5,23.0,36.5
1055,226,150,47.0,5.191000000000001,0.5,40.0,23.0,24.0
1056,226,180,23.0,6.1305,1.0,42.5,23.0,0.0
1057,227,0,83.5,4.038,1.0,37.0,41.5,42.0
1058,227,30,84.0,4.8925,1.0,20.5,41.5,42.5
1059,227,60,68.0,4.3285,1.0,57.0,41.5,26.5
1060,227,90,73.5,3.6325,1.0,45.5,41.5,32.0
1061,227,120,54.0,4.8365,1.0,36.0,41.5,12.5
1062,227,150,39.0,4.9935,1.0,38.0,41.5,-2.5
1063,227,180,41.5,4.585,1.0,45.5,41.5,0.0
1064,228,0,96.5,3.8835,1.0,34.5,0.0,96.5
1065,228,30,99.5,4.0175,1.0,34.0,0.0,99.5
1066,228,60,93.0,4.310499999999999,1.0,45.0,0.0,93.0
1067,228,90,27.5,3.983,1.0,51.0,0.0,27.5
1068,228,120,0.0,4.4879999999999995,0.5,46.5,0.0,0.0
1069,228,150,0.0,3.041,0.5,35.0,0.0,0.0
1070,228,180,0.0,4.525,0.0,55.0,0.0,0.0
1071,229,0,91.5,4.2265,1.0,29.0,80.0,11.5
1072,229,30,91.0,3.844,1.0,33.0,80.0,11.0
1073,229,60,93.0,3.7285,1.0,46.0,80.0,13.0
1074,229,90,89.0,4.1,1.0,45.5,80.0,9.0
1075,229,120,85.5,3.9175,1.0,38.5,80.0,5.5
1076,229,150,81.0,4.9885,1.0,42.0,80.0,1.0
1077,229,180,80.0,3.9005,1.0,52.5,80.0,0.0
1078,230,0,100.0,3.143,1.0,53.5,32.5,67.5
1079,230,30,99.0,3.1435,1.0,53.0,32.5,66.5
1080,230,60,99.5,3.2009999999999996,1.0,39.0,32.5,67.0
1081,230,90,84.5,3.6955,1.0,31.5,32.5,52.0
1082,230,120,66.0,4.298500000000001,1.0,19.5,32.5,33.5
1083,230,150,26.5,4.758,1.0,19.5,32.5,-6.0
1084,230,180,32.5,4.77,1.0,51.0,32.5,0.0
1085,231,0,68.0,1.7545,1.0,50.5,23.0,45.0
1086,231,30,70.0,1.7654999999999998,1.0,39.0,23.0,47.0
1087,231,60,66.0,1.7055,1.0,53.0,23.0,43.0
1088,231,90,55.0,2.218,1.0,42.0,23.0,32.0
1089,231,120,39.0,1.9705,0.5,32.5,23.0,16.0
1090,231,150,22.0,1.6905000000000001,1.0,25.0,23.0,-1.0
1091,231,180,23.0,1.7445,0.5,49.0,23.0,0.0
1092,233,0,100.0,2.4855,1.0,33.0,27.0,73.0
1093,233,30,100.0,2.543,1.0,48.5,27.0,73.0
1094,233,60,95.0,2.8075,1.0,31.0,27.0,68.0
1095,233,90,81.5,2.574,1.0,40.5,27.0,54.5
1096,233,120,56.5,2.839,1.0,40.5,27.0,29.5
1097,233,150,1.5,2.8194999999999997,1.0,30.0,27.0,-25.5
1098,233,180,27.0,3.223,1.0,53.5,27.0,0.0
1099,234,0,88.5,1.94,1.0,43.0,23.5,65.0
1100,234,30,89.5,1.7205,1.0,43.5,23.5,66.0
1101,234,60,87.5,1.846,1.0,53.0,23.5,64.0
1102,234,90,82.0,1.9805000000000001,1.0,41.0,23.5,58.5
1103,234,120,28.5,2.1405,1.0,26.5,23.5,5.0
1104,234,150,16.5,2.221,1.0,32.5,23.5,-7.0
1105,234,180,23.5,2.058,1.0,54.0,23.5,0.0
1106,235,0,73.0,3.359,1.0,33.5,39.0,34.0
1107,235,30,75.0,3.0620000000000003,1.0,32.0,39.0,36.0
1108,235,60,69.0,3.128,1.0,39.5,39.0,30.0
1109,235,90,69.0,3.3345000000000002,1.0,51.0,39.0,30.0
1110,235,120,52.0,3.5789999999999997,1.0,42.5,39.0,13.0
1111,235,150,28.5,4.1259999999999994,0.5,48.5,39.0,-10.5
1112,235,180,39.0,3.8895,1.0,40.5,39.0,0.0
1113,237,0,100.0,3.423,1.0,46.0,0.5,99.5
1114,237,30,100.0,3.5365,1.0,55.0,0.5,99.5
1115,237,60,99.0,3.594,1.0,32.0,0.5,98.5
1116,237,90,54.0,4.1525,1.0,29.0,0.5,53.5
1117,237,120,20.0,4.227,1.0,32.0,0.5,19.5
1118,237,150,1.0,3.708,1.0,50.5,0.5,0.5
1119,237,180,0.5,3.9450000000000003,0.0,50.5,0.5,0.0
1120,239,0,85.5,2.8615,1.0,32.0,21.0,64.5
1121,239,30,83.0,2.752,1.0,46.0,21.0,62.0
1122,239,60,80.5,3.1135,1.0,40.0,21.0,59.5
1123,239,90,63.5,3.0515,1.0,50.5,21.0,42.5
1124,239,120,54.0,3.7245,1.0,40.0,21.0,33.0
1125,239,150,15.0,2.9895,1.0,49.0,21.0,-6.0
1126,239,180,21.0,3.497,1.0,19.5,21.0,0.0
1127,240,0,100.0,2.2965,1.0,40.5,0.0,100.0
1128,240,30,100.0,2.4555,1.0,63.5,0.0,100.0
1129,240,60,100.0,2.7535,1.0,31.0,0.0,100.0
1130,240,90,100.0,2.6535,1.0,44.0,0.0,100.0
1131,240,120,100.0,2.5380000000000003,1.0,35.0,0.0,100.0
1132,240,150,0.0,2.635,1.0,35.0,0.0,0.0
1133,240,180,0.0,2.7365,1.0,42.5,0.0,0.0
1134,241,0,96.5,3.755,1.0,20.5,10.0,86.5
1135,241,30,95.0,3.33,1.0,38.0,10.0,85.0
1136,241,60,92.5,3.738,1.0,37.5,10.0,82.5
1137,241,90,80.5,3.9005,1.0,46.0,10.0,70.5
1138,241,120,59.5,4.1735,1.0,34.5,10.0,49.5
1139,241,150,7.0,4.3735,1.0,43.5,10.0,-3.0
1140,241,180,10.0,4.1425,1.0,53.5,10.0,0.0
1141,242,0,98.5,3.436,1.0,36.0,12.5,86.0
1142,242,30,85.0,3.1395,1.0,31.0,12.5,72.5
1143,242,60,94.5,3.3665,1.0,53.5,12.5,82.0
1144,242,90,66.5,3.544,1.0,41.5,12.5,54.0
1145,242,120,41.0,4.189,1.0,35.5,12.5,28.5
1146,242,150,9.5,3.5345000000000004,1.0,38.5,12.5,-3.0
1147,242,180,12.5,3.4234999999999998,0.0,50.5,12.5,0.0
1148,243,0,84.5,3.4125,1.0,48.0,37.0,47.5
1149,243,30,83.5,3.953,1.0,42.5,37.0,46.5
1150,243,60,79.0,3.034,1.0,50.5,37.0,42.0
1151,243,90,64.5,3.7670000000000003,1.0,34.5,37.0,27.5
1152,243,120,52.5,3.577,1.0,29.5,37.0,15.5
1153,243,150,26.0,3.7445,0.5,50.5,37.0,-11.0
1154,243,180,37.0,3.846,1.0,37.5,37.0,0.0
1155,244,0,89.5,2.884,1.0,43.5,53.0,36.5
1156,244,30,81.0,2.492,1.0,37.5,53.0,28.0
1157,244,60,82.0,2.5925000000000002,1.0,54.5,53.0,29.0
1158,244,90,72.0,2.385,1.0,42.0,53.0,19.0
1159,244,120,60.0,2.9924999999999997,1.0,43.0,53.0,7.0
1160,244,150,45.5,2.6865,1.0,44.5,53.0,-7.5
1161,244,180,53.0,2.686,0.0,34.0,53.0,0.0
1162,246,0,98.5,2.075,1.0,40.0,39.5,59.0
1163,246,30,97.5,2.255,1.0,35.0,39.5,58.0
1164,246,60,81.0,1.9809999999999999,1.0,40.5,39.5,41.5
1165,246,90,68.5,2.1875,1.0,44.5,39.5,29.0
1166,246,120,43.0,2.2895000000000003,1.0,43.0,39.5,3.5
1167,246,150,22.5,2.3470000000000004,1.0,54.0,39.5,-17.0
1168,246,180,39.5,2.5965,0.0,39.0,39.5,0.0
1169,248,0,98.5,3.1285,1.0,13.5,16.0,82.5
1170,248,30,95.5,3.387,1.0,37.5,16.0,79.5
1171,248,60,95.0,4.837,1.0,49.0,16.0,79.0
1172,248,90,74.0,3.926,1.0,41.5,16.0,58.0
1173,248,120,36.5,4.246,1.0,40.5,16.0,20.5
1174,248,150,22.5,4.3085,1.0,40.5,16.0,6.5
1175,248,180,16.0,3.9545000000000003,1.0,52.5,16.0,0.0
1176,250,0,95.5,2.3415,1.0,42.5,8.5,87.0
1177,250,30,92.5,2.625,1.0,36.5,8.5,84.0
1178,250,60,84.0,2.5645,1.0,58.0,8.5,75.5
1179,250,90,72.0,3.2765,1.0,36.5,8.5,63.5
1180,250,120,45.0,4.202500000000001,1.0,35.0,8.5,36.5
1181,250,150,6.5,3.6630000000000003,1.0,43.0,8.5,-2.0
1182,250,180,8.5,3.7255000000000003,1.0,57.5,8.5,0.0
1183,252,0,100.0,5.6995000000000005,1.0,30.0,32.0,68.0
1184,252,30,86.0,5.016,1.0,55.0,32.0,54.0
1185,252,60,78.5,5.3125,1.0,36.5,32.0,46.5
1186,252,90,70.0,5.4315,1.0,38.5,32.0,38.0
1187,252,120,44.5,4.9085,1.0,40.5,32.0,12.5
1188,252,150,21.0,5.609,1.0,37.5,32.0,-11.0
1189,252,180,32.0,5.3345,0.5,50.5,32.0,0.0
1190,253,0,91.0,3.496,1.0,30.5,37.5,53.5
1191,253,30,90.0,3.3695,1.0,66.0,37.5,52.5
1192,253,60,85.0,2.921,1.0,45.0,37.5,47.5
1193,253,90,72.0,2.9005,1.0,39.0,37.5,34.5
1194,253,120,55.5,3.492,1.0,26.0,37.5,18.0
1195,253,150,32.0,3.5665,1.0,52.5,37.5,-5.5
1196,253,180,37.5,4.0625,1.0,41.0,37.5,0.0
1197,255,0,95.5,1.8465,1.0,40.0,47.5,48.0
1198,255,30,96.5,1.8895,1.0,37.5,47.5,49.0
1199,255,60,97.5,1.8515000000000001,1.0,31.5,47.5,50.0
1200,255,90,94.5,1.8094999999999999,1.0,57.5,47.5,47.0
1201,255,120,33.5,1.6844999999999999,0.5,22.5,47.5,-14.0
1202,255,150,37.0,2.008,1.0,37.0,47.5,-10.5
1203,255,180,47.5,2.1135,0.0,51.0,47.5,0.0
1204,256,0,100.0,3.5300000000000002,1.0,42.5,36.0,64.0
1205,256,30,100.0,3.4,1.0,39.5,36.0,64.0
1206,256,60,95.0,3.8385,1.0,26.0,36.0,59.0
1207,256,90,84.0,3.7225,1.0,46.5,36.0,48.0
1208,256,120,60.5,4.1355,1.0,56.0,36.0,24.5
1209,256,150,2.5,4.406499999999999,0.5,36.0,36.0,-33.5
1210,256,180,36.0,3.7984999999999998,1.0,49.0,36.0,0.0
1211,257,0,100.0,2.3834999999999997,1.0,31.5,5.5,94.5
1212,257,30,99.0,2.5905,1.0,44.5,5.5,93.5
1213,257,60,93.0,2.6465,1.0,60.5,5.5,87.5
1214,257,90,80.5,2.7955,1.0,43.0,5.5,75.0
1215,257,120,27.5,2.9225000000000003,1.0,59.0,5.5,22.0
1216,257,150,4.5,2.7335000000000003,0.5,26.5,5.5,-1.0
1217,257,180,5.5,2.6515,1.0,38.5,5.5,0.0
1218,258,0,97.0,3.7350000000000003,1.0,32.0,42.5,54.5
1219,258,30,98.0,3.4124999999999996,1.0,42.0,42.5,55.5
1220,258,60,95.0,3.488,1.0,47.5,42.5,52.5
1221,258,90,90.5,3.6544999999999996,1.0,48.5,42.5,48.0
1222,258,120,64.0,3.6929999999999996,1.0,54.5,42.5,21.5
1223,258,150,50.5,4.205,1.0,27.0,42.5,8.0
1224,258,180,42.5,4.1325,0.5,46.5,42.5,0.0
1225,259,0,87.0,2.901,1.0,48.0,25.0,62.0
1226,259,30,85.5,2.8994999999999997,1.0,51.0,25.0,60.5
1227,259,60,84.0,3.101,1.0,34.0,25.0,59.0
1228,259,90,67.0,2.9604999999999997,1.0,36.0,25.0,42.0
1229,259,120,45.5,2.97,1.0,48.0,25.0,20.5
1230,259,150,23.5,3.107,1.0,39.5,25.0,-1.5
1231,259,180,25.0,3.1895,0.5,25.0,25.0,0.0
1232,260,0,68.0,2.286,1.0,21.5,14.5,53.5
1233,260,30,80.0,2.343,1.0,48.0,14.5,65.5
1234,260,60,54.5,2.3049999999999997,1.0,55.0,14.5,40.0
1235,260,90,45.0,2.5895,1.0,38.0,14.5,30.5
1236,260,120,16.5,2.409,0.5,38.0,14.5,2.0
1237,260,150,38.0,2.5655,0.5,45.0,14.5,23.5
1238,260,180,14.5,2.1189999999999998,0.5,39.5,14.5,0.0
1239,261,0,100.0,3.5700000000000003,1.0,56.5,0.0,100.0
1240,261,30,100.0,3.9349999999999996,1.0,51.5,0.0,100.0
1241,261,60,100.0,4.032500000000001,1.0,37.0,0.0,100.0
1242,261,90,100.0,4.12,1.0,38.0,0.0,100.0
1243,261,120,0.0,4.2285,1.0,65.5,0.0,0.0
1244,261,150,0.0,4.709,0.5,29.5,0.0,0.0
1245,261,180,0.0,4.4185,0.5,29.0,0.0,0.0
1246,263,0,91.5,2.6685,1.0,38.5,84.0,7.5
1247,263,30,92.5,2.828,1.0,40.0,84.0,8.5
1248,263,60,92.0,2.76,1.0,33.0,84.0,8.0
1249,263,90,91.5,2.985,1.0,43.0,84.0,7.5
1250,263,120,88.0,2.875,1.0,45.0,84.0,4.0
1251,263,150,7.0,3.2110000000000003,0.0,37.5,84.0,-77.0
1252,263,180,84.0,2.7835,1.0,61.0,84.0,0.0
1253,264,0,83.0,2.1784999999999997,1.0,52.0,28.0,55.0
1254,264,30,78.5,2.2975000000000003,1.0,48.5,28.0,50.5
1255,264,60,79.5,2.498,1.0,22.5,28.0,51.5
1256,264,90,54.5,2.5415,1.0,31.5,28.0,26.5
1257,264,120,42.5,2.604,1.0,46.0,28.0,14.5
1258,264,150,26.5,3.245,0.0,36.0,28.0,-1.5
1259,264,180,28.0,2.4444999999999997,1.0,47.5,28.0,0.0
1260,265,0,83.5,2.667,1.0,40.5,20.5,63.0
1261,265,30,89.5,2.6685,1.0,26.5,20.5,69.0
1262,265,60,82.5,2.878,1.0,49.0,20.5,62.0
1263,265,90,72.0,2.41,1.0,50.0,20.5,51.5
1264,265,120,61.5,2.7605000000000004,1.0,34.5,20.5,41.0
1265,265,150,33.5,2.5620000000000003,1.0,56.5,20.5,13.0
1266,265,180,20.5,2.982,1.0,21.5,20.5,0.0
1267,266,0,93.0,2.1029999999999998,1.0,42.0,50.0,43.0
1268,266,30,90.0,2.5285,1.0,33.0,50.0,40.0
1269,266,60,89.0,2.4795,1.0,28.5,50.0,39.0
1270,266,90,85.0,2.0805,1.0,34.0,50.0,35.0
1271,266,120,69.5,2.4210000000000003,1.0,49.5,50.0,19.5
1272,266,150,59.5,2.9955,1.0,53.5,50.0,9.5
1273,266,180,50.0,2.558,1.0,46.0,50.0,0.0
1274,269,0,100.0,2.9505,1.0,26.5,33.5,66.5
1275,269,30,100.0,2.7875,1.0,24.5,33.5,66.5
1276,269,60,96.5,3.0115,1.0,38.0,33.5,63.0
1277,269,90,97.0,2.995,1.0,53.0,33.5,63.5
1278,269,120,58.0,3.0374999999999996,1.0,51.0,33.5,24.5
1279,269,150,43.5,3.1035000000000004,1.0,51.5,33.5,10.0
1280,269,180,33.5,3.2965,1.0,30.0,33.5,0.0
1281,271,0,90.0,3.6145,1.0,51.0,8.5,81.5
1282,271,30,90.0,3.888,1.0,45.5,8.5,81.5
1283,271,60,73.5,3.6710000000000003,1.0,16.5,8.5,65.0
1284,271,90,59.5,3.3715,1.0,29.0,8.5,51.0
1285,271,120,39.5,3.547,1.0,57.0,8.5,31.0
1286,271,150,0.0,3.238,1.0,49.0,8.5,-8.5
1287,271,180,8.5,3.51,1.0,40.0,8.5,0.0
1288,272,0,100.0,2.262,1.0,44.5,3.5,96.5
1289,272,30,99.5,2.1345,1.0,42.5,3.5,96.0
1290,272,60,92.5,2.002,1.0,31.0,3.5,89.0
1291,272,90,68.0,2.474,1.0,36.0,3.5,64.5
1292,272,120,32.0,2.4855,1.0,23.0,3.5,28.5
1293,272,150,7.5,2.285,1.0,57.0,3.5,4.0
1294,272,180,3.5,2.338,0.5,41.5,3.5,0.0
1295,274,0,100.0,2.7439999999999998,1.0,44.5,19.0,81.0
1296,274,30,100.0,2.996,1.0,28.0,19.0,81.0
1297,274,60,95.5,2.9844999999999997,1.0,41.5,19.0,76.5
1298,274,90,92.5,3.1015,1.0,35.0,19.0,73.5
1299,274,120,62.5,3.133,1.0,49.5,19.0,43.5
1300,274,150,8.5,3.396,1.0,38.0,19.0,-10.5
1301,274,180,19.0,3.2565,0.0,47.5,19.0,0.0
1302,275,0,97.5,2.935,1.0,58.0,20.0,77.5
1303,275,30,99.0,2.511,1.0,24.0,20.0,79.0
1304,275,60,98.5,2.261,1.0,54.5,20.0,78.5
1305,275,90,95.5,2.8115,1.0,43.5,20.0,75.5
1306,275,120,68.5,2.8925,1.0,27.5,20.0,48.5
1307,275,150,13.5,3.4604999999999997,1.0,33.5,20.0,-6.5
1308,275,180,20.0,3.029,1.0,31.0,20.0,0.0
1309,276,0,100.0,4.1065000000000005,1.0,48.5,59.0,41.0
1310,276,30,100.0,4.4135,1.0,54.0,59.0,41.0
1311,276,60,100.0,4.1365,1.0,27.0,59.0,41.0
1312,276,90,78.5,4.8075,1.0,44.0,59.0,19.5
1313,276,120,74.0,5.5280000000000005,1.0,32.0,59.0,15.0
1314,276,150,56.0,5.883,1.0,39.0,59.0,-3.0
1315,276,180,59.0,5.9935,1.0,37.0,59.0,0.0
1316,277,0,92.0,3.222,1.0,25.0,14.0,78.0
1317,277,30,87.5,3.091,1.0,60.0,14.0,73.5
1318,277,60,77.0,3.5365,1.0,51.0,14.0,63.0
1319,277,90,64.0,3.4095,1.0,40.0,14.0,50.0
1320,277,120,17.5,3.7235,1.0,40.5,14.0,3.5
1321,277,150,17.0,4.4955,1.0,34.5,14.0,3.0
1322,277,180,14.0,3.942,0.0,32.0,14.0,0.0
1323,278,0,90.0,3.4565,1.0,46.0,34.5,55.5
1324,278,30,86.5,3.479,1.0,49.0,34.5,52.0
1325,278,60,84.5,3.2649999999999997,1.0,40.0,34.5,50.0
1326,278,90,72.0,3.2295,1.0,27.0,34.5,37.5
1327,278,120,61.5,3.1625,1.0,31.0,34.5,27.0
1328,278,150,22.5,3.488,1.0,66.0,34.5,-12.0
1329,278,180,34.5,3.2755,0.0,48.5,34.5,0.0
1330,282,0,89.5,2.547,1.0,48.0,24.0,65.5
1331,282,30,86.5,2.6595,1.0,26.5,24.0,62.5
1332,282,60,87.5,2.6355,1.0,52.0,24.0,63.5
1333,282,90,84.5,2.6015,1.0,19.0,24.0,60.5
1334,282,120,70.5,2.4065000000000003,1.0,45.5,24.0,46.5
1335,282,150,35.0,2.7165,1.0,49.5,24.0,11.0
1336,282,180,24.0,2.7300000000000004,1.0,44.0,24.0,0.0
1337,285,0,92.0,4.2585,1.0,38.5,34.5,57.5
1338,285,30,87.0,4.2195,1.0,53.5,34.5,52.5
1339,285,60,84.0,4.0600000000000005,1.0,34.0,34.5,49.5
1340,285,90,78.0,4.005,1.0,48.5,34.5,43.5
1341,285,120,50.0,4.365500000000001,1.0,23.5,34.5,15.5
1342,285,150,34.5,4.4645,1.0,41.5,34.5,0.0
1343,285,180,34.5,4.6155,1.0,46.5,34.5,0.0
1344,287,0,96.0,2.721,1.0,52.0,10.5,85.5
1345,287,30,94.0,2.857,1.0,29.0,10.5,83.5
1346,287,60,94.0,3.0694999999999997,1.0,49.0,10.5,83.5
1347,287,90,84.0,3.673,1.0,47.5,10.5,73.5
1348,287,120,44.0,3.455,1.0,39.0,10.5,33.5
1349,287,150,18.5,4.1525,1.0,44.0,10.5,8.0
1350,287,180,10.5,3.5135,1.0,39.5,10.5,0.0
1351,288,0,100.0,2.9425,1.0,52.5,1.0,99.0
1352,288,30,99.0,2.874,1.0,46.0,1.0,98.0
1353,288,60,99.5,3.0195,1.0,39.0,1.0,98.5
1354,288,90,90.5,3.02,1.0,35.0,1.0,89.5
1355,288,120,22.5,3.24,1.0,49.5,1.0,21.5
1356,288,150,1.0,2.894,1.0,31.5,1.0,0.0
1357,288,180,1.0,2.8815,1.0,53.5,1.0,0.0
1358,290,0,92.0,2.2145,1.0,49.0,56.5,35.5
1359,290,30,88.0,2.2255000000000003,1.0,44.5,56.5,31.5
1360,290,60,85.5,2.2945,1.0,36.5,56.5,29.0
1361,290,90,77.0,2.3739999999999997,1.0,62.5,56.5,20.5
1362,290,120,58.5,2.3085,1.0,26.5,56.5,2.0
1363,290,150,34.0,2.678,1.0,27.5,56.5,-22.5
1364,290,180,56.5,2.463,0.0,58.5,56.5,0.0
1365,292,0,100.0,2.3825000000000003,1.0,36.5,0.0,100.0
1366,292,30,100.0,3.0555,1.0,56.0,0.0,100.0
1367,292,60,99.0,3.1245,1.0,36.5,0.0,99.0
1368,292,90,99.5,3.059,1.0,51.5,0.0,99.5
1369,292,120,6.0,3.1745,1.0,31.5,0.0,6.0
1370,292,150,0.5,3.5025,1.0,29.5,0.0,0.5
1371,292,180,0.0,3.4055,0.0,51.0,0.0,0.0
1372,293,0,80.0,2.6345,1.0,42.5,21.0,59.0
1373,293,30,76.5,2.6025,1.0,47.0,21.0,55.5
1374,293,60,70.0,2.551,1.0,58.5,21.0,49.0
1375,293,90,59.0,2.819,1.0,35.5,21.0,38.0
1376,293,120,45.0,2.588,1.0,32.5,21.0,24.0
1377,293,150,29.5,3.4385000000000003,1.0,39.5,21.0,8.5
1378,293,180,21.0,3.026,0.0,25.0,21.0,0.0
1379,294,0,84.0,2.2375,1.0,35.0,29.0,55.0
1380,294,30,82.0,2.1094999999999997,1.0,42.5,29.0,53.0
1381,294,60,85.0,2.2885,1.0,40.5,29.0,56.0
1382,294,90,84.0,2.3045,1.0,44.0,29.0,55.0
1383,294,120,49.0,2.1965,1.0,28.0,29.0,20.0
1384,294,150,18.5,2.537,1.0,44.5,29.0,-10.5
1385,294,180,29.0,3.219,0.5,47.0,29.0,0.0
1386,299,0,96.0,2.7355,1.0,21.5,5.0,91.0
1387,299,30,91.5,3.4749999999999996,1.0,46.0,5.0,86.5
1388,299,60,84.5,2.9844999999999997,1.0,54.0,5.0,79.5
1389,299,90,62.5,2.9785000000000004,1.0,40.0,5.0,57.5
1390,299,120,32.0,3.678,1.0,46.0,5.0,27.0
1391,299,150,3.5,3.3745000000000003,1.0,39.5,5.0,-1.5
1392,299,180,5.0,3.5505,1.0,39.5,5.0,0.0
1393,300,0,80.0,1.6425,1.0,36.0,18.5,61.5
1394,300,30,75.0,1.6360000000000001,1.0,39.5,18.5,56.5
1395,300,60,65.0,1.4609999999999999,1.0,36.5,18.5,46.5
1396,300,90,65.5,1.654,1.0,46.5,18.5,47.0
1397,300,120,35.5,1.8795000000000002,1.0,42.0,18.5,17.0
1398,300,150,26.0,1.5035,1.0,45.5,18.5,7.5
1399,300,180,18.5,2.0305,1.0,44.5,18.5,0.0
1400,301,0,100.0,2.8135,1.0,52.5,3.5,96.5
1401,301,30,100.0,2.98,1.0,38.0,3.5,96.5
1402,301,60,100.0,2.9255,1.0,33.5,3.5,96.5
1403,301,90,87.0,2.9779999999999998,1.0,42.0,3.5,83.5
1404,301,120,28.0,3.1900000000000004,1.0,44.5,3.5,24.5
1405,301,150,16.0,3.552,1.0,44.5,3.5,12.5
1406,301,180,3.5,3.6505,1.0,41.5,3.5,0.0
1407,302,0,98.5,2.937,1.0,41.5,21.5,77.0
1408,302,30,98.0,2.824,1.0,53.0,21.5,76.5
1409,302,60,94.0,2.885,1.0,44.0,21.5,72.5
1410,302,90,85.0,3.141,1.0,40.5,21.5,63.5
1411,302,120,63.5,2.686,1.0,42.0,21.5,42.0
1412,302,150,44.0,3.4115,1.0,18.5,21.5,22.5
1413,302,180,21.5,3.049,0.5,59.5,21.5,0.0
1414,303,0,90.5,2.7605,1.0,44.0,53.5,37.0
1415,303,30,90.0,3.0549999999999997,1.0,51.5,53.5,36.5
1416,303,60,84.5,2.8739999999999997,1.0,39.0,53.5,31.0
1417,303,90,83.0,2.536,1.0,40.5,53.5,29.5
1418,303,120,78.5,3.0940000000000003,1.0,28.0,53.5,25.0
1419,303,150,55.5,2.9615,1.0,45.0,53.5,2.0
1420,303,180,53.5,3.6710000000000003,1.0,44.5,53.5,0.0
1421,304,0,84.5,2.032,1.0,62.5,19.5,65.0
1422,304,30,88.5,2.224,1.0,48.5,19.5,69.0
1423,304,60,84.0,2.3274999999999997,1.0,29.0,19.5,64.5
1424,304,90,74.5,2.133,1.0,52.0,19.5,55.0
1425,304,120,56.5,2.617,1.0,34.5,19.5,37.0
1426,304,150,27.0,2.481,1.0,30.5,19.5,7.5
1427,304,180,19.5,2.715,1.0,50.5,19.5,0.0
1428,307,0,83.0,2.5845000000000002,1.0,20.0,31.0,52.0
1429,307,30,77.5,2.8209999999999997,1.0,44.5,31.0,46.5
1430,307,60,67.0,3.0229999999999997,1.0,37.5,31.0,36.0
1431,307,90,64.0,2.742,1.0,27.0,31.0,33.0
1432,307,120,35.5,2.8205,1.0,52.0,31.0,4.5
1433,307,150,26.0,3.043,1.0,54.5,31.0,-5.0
1434,307,180,31.0,2.7695,0.5,53.5,31.0,0.0
1435,308,0,97.5,2.1165,1.0,48.0,29.5,68.0
1436,308,30,94.0,2.1605,1.0,49.5,29.5,64.5
1437,308,60,91.0,2.0675,1.0,43.5,29.5,61.5
1438,308,90,81.5,2.295,1.0,37.0,29.5,52.0
1439,308,120,53.5,2.29,1.0,35.5,29.5,24.0
1440,308,150,30.0,2.253,1.0,31.0,29.5,0.5
1441,308,180,29.5,2.4175,0.5,40.5,29.5,0.0
1442,309,0,100.0,2.524,1.0,36.5,0.0,100.0
1443,309,30,100.0,2.6275,1.0,52.5,0.0,100.0
1444,309,60,100.0,2.812,1.0,35.5,0.0,100.0
1445,309,90,100.0,2.687,1.0,51.5,0.0,100.0
1446,309,120,0.0,2.71,1.0,46.5,0.0,0.0
1447,309,150,0.0,2.5374999999999996,0.5,42.0,0.0,0.0
1448,309,180,0.0,2.55,0.5,33.5,0.0,0.0
1449,310,0,91.5,2.0955000000000004,1.0,59.5,43.0,48.5
1450,310,30,89.5,2.6015,1.0,32.0,43.0,46.5
1451,310,60,83.0,2.1535,1.0,42.0,43.0,40.0
1452,310,90,76.5,3.5164999999999997,1.0,42.5,43.0,33.5
1453,310,120,59.0,2.3594999999999997,1.0,26.5,43.0,16.0
1454,310,150,8.0,2.4935,1.0,50.5,43.0,-35.0
1455,310,180,43.0,3.4370000000000003,1.0,33.5,43.0,0.0
1456,312,0,100.0,3.091,1.0,60.0,3.5,96.5
1457,312,30,100.0,3.3025,1.0,34.5,3.5,96.5
1458,312,60,93.0,3.8520000000000003,1.0,43.0,3.5,89.5
1459,312,90,75.0,4.439500000000001,1.0,30.5,3.5,71.5
1460,312,120,53.5,4.37,1.0,23.5,3.5,50.0
1461,312,150,2.5,4.0805,1.0,60.5,3.5,-1.0
1462,312,180,3.5,5.2885,1.0,45.5,3.5,0.0
1463,313,0,87.0,1.762,1.0,37.5,6.0,81.0
1464,313,30,84.0,1.956,1.0,25.5,6.0,78.0
1465,313,60,69.0,1.656,1.0,30.5,6.0,63.0
1466,313,90,58.5,2.0759999999999996,1.0,62.0,6.0,52.5
1467,313,120,25.5,2.159,1.0,50.0,6.0,19.5
1468,313,150,9.0,1.738,1.0,38.0,6.0,3.0
1469,313,180,6.0,1.9929999999999999,1.0,40.0,6.0,0.0
1470,314,0,96.5,3.168,1.0,38.5,42.5,54.0
1471,314,30,96.0,3.226,1.0,42.5,42.5,53.5
1472,314,60,86.0,3.0635000000000003,1.0,32.0,42.5,43.5
1473,314,90,80.5,3.4215,1.0,45.5,42.5,38.0
1474,314,120,56.0,3.376,1.0,58.0,42.5,13.5
1475,314,150,41.5,3.231,1.0,39.0,42.5,-1.0
1476,314,180,42.5,3.5685000000000002,1.0,34.0,42.5,0.0
1477,315,0,89.5,2.5235,1.0,39.5,43.5,46.0
1478,315,30,86.0,2.6925,1.0,41.0,43.5,42.5
1479,315,60,80.5,2.302,1.0,41.5,43.5,37.0
1480,315,90,73.5,2.1745,1.0,57.5,43.5,30.0
1481,315,120,60.5,2.476,1.0,46.0,43.5,17.0
1482,315,150,33.5,2.3449999999999998,1.0,31.5,43.5,-10.0
1483,315,180,43.5,2.5045,1.0,33.5,43.5,0.0
1484,317,0,96.0,3.9145000000000003,1.0,33.5,27.0,69.0
1485,317,30,95.0,3.7355,1.0,22.5,27.0,68.0
1486,317,60,90.5,3.9405,1.0,49.5,27.0,63.5
1487,317,90,88.0,3.7995,1.0,42.0,27.0,61.0
1488,317,120,56.5,3.7565,1.0,47.0,27.0,29.5
1489,317,150,17.0,3.935,1.0,49.5,27.0,-10.0
1490,317,180,27.0,4.119,0.0,29.5,27.0,0.0
1491,321,0,100.0,3.545,1.0,31.0,2.5,97.5
1492,321,30,100.0,3.2765,1.0,53.5,2.5,97.5
1493,321,60,99.0,2.9234999999999998,1.0,54.0,2.5,96.5
1494,321,90,76.0,3.3914999999999997,1.0,32.5,2.5,73.5
1495,321,120,17.0,3.669,1.0,29.5,2.5,14.5
1496,321,150,1.0,3.7125,0.5,42.5,2.5,-1.5
1497,321,180,2.5,3.7255000000000003,0.0,44.5,2.5,0.0
1498,322,0,100.0,2.8425000000000002,1.0,42.5,0.0,100.0
1499,322,30,100.0,2.606,1.0,72.5,0.0,100.0
1500,322,60,100.0,2.8635,1.0,52.0,0.0,100.0
1501,322,90,91.5,2.8605,1.0,28.5,0.0,91.5
1502,322,120,2.5,3.1175,0.5,36.5,0.0,2.5
1503,322,150,0.0,3.2984999999999998,1.0,43.5,0.0,0.0
1504,322,180,0.0,3.034,0.5,25.5,0.0,0.0
1505,323,0,95.0,2.7295,1.0,29.5,11.5,83.5
1506,323,30,95.0,2.6375,1.0,54.5,11.5,83.5
1507,323,60,92.0,2.5035,1.0,44.0,11.5,80.5
1508,323,90,88.5,2.866,1.0,37.5,11.5,77.0
1509,323,120,55.0,3.152,1.0,27.0,11.5,43.5
1510,323,150,6.5,3.084,1.0,57.5,11.5,-5.0
1511,323,180,11.5,4.1555,0.0,36.0,11.5,0.0
1512,324,0,100.0,3.149,1.0,40.0,63.5,36.5
1513,324,30,98.5,3.555,1.0,47.5,63.5,35.0
1514,324,60,98.0,3.4290000000000003,1.0,33.5,63.5,34.5
1515,324,90,93.0,3.284,1.0,26.5,63.5,29.5
1516,324,120,85.5,3.7245,1.0,39.0,63.5,22.0
1517,324,150,50.0,3.955,1.0,50.0,63.5,-13.5
1518,324,180,63.5,3.7685,1.0,52.0,63.5,0.0
1519,325,0,100.0,2.135,1.0,50.5,0.0,100.0
1520,325,30,100.0,2.072,1.0,47.0,0.0,100.0
1521,325,60,100.0,2.1525,1.0,34.5,0.0,100.0
1522,325,90,83.5,2.2815000000000003,1.0,33.5,0.0,83.5
1523,325,120,46.5,2.568,1.0,41.0,0.0,46.5
1524,325,150,4.5,2.3680000000000003,1.0,39.0,0.0,4.5
1525,325,180,0.0,2.551,1.0,35.5,0.0,0.0
1526,326,0,72.5,1.7690000000000001,1.0,54.0,41.5,31.0
1527,326,30,71.0,1.966,1.0,47.5,41.5,29.5
1528,326,60,72.5,2.081,1.0,58.5,41.5,31.0
1529,326,90,65.0,1.9129999999999998,1.0,38.5,41.5,23.5
1530,326,120,57.0,2.1025,1.0,31.5,41.5,15.5
1531,326,150,44.0,2.5955,1.0,40.5,41.5,2.5
1532,326,180,41.5,2.945,1.0,22.0,41.5,0.0
1533,327,0,97.0,2.4859999999999998,1.0,45.5,3.0,94.0
1534,327,30,96.5,2.9565,1.0,22.5,3.0,93.5
1535,327,60,97.0,2.314,1.0,57.5,3.0,94.0
1536,327,90,96.0,2.6855,1.0,37.0,3.0,93.0
1537,327,120,97.0,2.528,1.0,42.5,3.0,94.0
1538,327,150,2.0,2.8005,1.0,42.5,3.0,-1.0
1539,327,180,3.0,2.464,0.5,50.0,3.0,0.0
1540,328,0,76.5,2.5004999999999997,1.0,29.5,57.0,19.5
1541,328,30,71.0,2.5735,1.0,49.0,57.0,14.0
1542,328,60,69.5,2.2535,1.0,36.5,57.0,12.5
1543,328,90,66.5,2.431,1.0,45.0,57.0,9.5
1544,328,120,52.5,2.7685,1.0,35.5,57.0,-4.5
1545,328,150,52.0,2.604,1.0,46.0,57.0,-5.0
1546,328,180,57.0,2.271,1.0,40.5,57.0,0.0
1547,335,0,91.5,2.5555000000000003,1.0,30.5,0.0,91.5
1548,335,30,90.0,2.2270000000000003,1.0,51.0,0.0,90.0
1549,335,60,71.5,2.1029999999999998,1.0,51.5,0.0,71.5
1550,335,90,56.0,2.667,1.0,11.0,0.0,56.0
1551,335,120,0.0,2.326,1.0,25.5,0.0,0.0
1552,335,150,0.0,2.3360000000000003,0.5,45.5,0.0,0.0
1553,335,180,0.0,2.261,0.0,61.0,0.0,0.0
1554,337,0,100.0,2.908,1.0,33.0,5.5,94.5
1555,337,30,100.0,2.8565,1.0,52.5,5.5,94.5
1556,337,60,97.0,3.372,1.0,43.5,5.5,91.5
1557,337,90,94.5,2.9050000000000002,1.0,41.0,5.5,89.0
1558,337,120,50.0,4.2844999999999995,1.0,42.0,5.5,44.5
1559,337,150,6.0,3.7430000000000003,1.0,44.5,5.5,0.5
1560,337,180,5.5,3.4455,1.0,36.5,5.5,0.0
1561,338,0,87.0,3.2055,1.0,43.0,13.0,74.0
1562,338,30,84.0,3.035,1.0,28.0,13.0,71.0
1563,338,60,75.0,3.2329999999999997,1.0,45.0,13.0,62.0
1564,338,90,63.5,2.9705000000000004,1.0,61.5,13.0,50.5
1565,338,120,34.5,3.0935,1.0,25.5,13.0,21.5
1566,338,150,14.5,3.3005,1.0,29.0,13.0,1.5
1567,338,180,13.0,2.907,0.5,59.5,13.0,0.0
1568,340,0,93.0,2.8520000000000003,1.0,45.5,16.5,76.5
1569,340,30,93.0,2.875,1.0,27.0,16.5,76.5
1570,340,60,86.5,2.7275,1.0,27.5,16.5,70.0
1571,340,90,77.5,3.083,1.0,38.5,16.5,61.0
1572,340,120,42.5,2.7465,1.0,53.5,16.5,26.0
1573,340,150,7.0,2.511,0.5,52.5,16.5,-9.5
1574,340,180,16.5,2.8925,1.0,39.0,16.5,0.0
1575,342,0,73.5,2.5435,1.0,55.5,40.0,33.5
1576,342,30,66.5,2.415,1.0,36.5,40.0,26.5
1577,342,60,57.0,2.5975,1.0,28.0,40.0,17.0
1578,342,90,55.5,2.5675,1.0,28.0,40.0,15.5
1579,342,120,52.5,2.4375,1.0,48.5,40.0,12.5
1580,342,150,46.5,2.7355,1.0,43.0,40.0,6.5
1581,342,180,40.0,2.704,1.0,44.5,40.0,0.0
1582,343,0,100.0,2.8095,1.0,39.5,0.0,100.0
1583,343,30,100.0,2.2055,1.0,45.5,0.0,100.0
1584,343,60,100.0,2.5955000000000004,1.0,28.5,0.0,100.0
1585,343,90,100.0,2.883,1.0,43.0,0.0,100.0
1586,343,120,14.0,3.2535,1.0,51.0,0.0,14.0
1587,343,150,0.0,2.7264999999999997,1.0,57.5,0.0,0.0
1588,343,180,0.0,2.574,0.5,37.5,0.0,0.0
1589,344,0,100.0,2.3194999999999997,1.0,40.0,20.0,80.0
1590,344,30,100.0,2.136,1.0,58.0,20.0,80.0
1591,344,60,100.0,2.3775,1.0,37.0,20.0,80.0
1592,344,90,65.0,2.7264999999999997,1.0,39.5,20.0,45.0
1593,344,120,47.0,2.7645,1.0,44.5,20.0,27.0
1594,344,150,18.0,2.6915,1.0,36.0,20.0,-2.0
1595,344,180,20.0,2.2055,1.0,34.5,20.0,0.0
